"Code","Codelist Code","Codelist Extensible (Yes/No)","Codelist Name","CDISC Submission Value","CDISC Synonym(s)","CDISC Definition","NCI Preferred Term","Standard and Date"
"C67497",,,"CDISC Glossary","CDISC Glossary","CDISC Glossary","The terminology of the Clinical Data Interchange Standards Consortium (CDISC) glossary.","CDISC Glossary Terminology","Glossary CT 2025-09-26"
"C80442","C67497",,"CDISC Glossary","510(k)",,"510(k). Premarket Notification (PMN) required for certain medical devices. See http://www.fda.gov/cdrh/510khome.html.","Premarket Device Notification","Glossary CT 2025-09-26"
"C42610","C67497",,"CDISC Glossary","abbreviation",,"A set of letters that are drawn from a word or from a sequence of words and that are used for brevity in place of the full word or phrase. NOTE: An abbreviation is NOT pronounced as a word, but each letter is read in sequence (e.g., NIH). Compare to acronym.","Abbreviation","Glossary CT 2025-09-26"
"C71733","C67497",,"CDISC Glossary","absorption",,"The process by which medications reach the blood stream when administered other than intravenously, for example, through nasal membranes. See also ADME (pharmacokinetics).","Biological Absorption","Glossary CT 2025-09-26"
"C156638","C67497",,"CDISC Glossary","accelerated approval","fast track designation","Regulatory mechanism by which new drugs meant to treat serious life-threatening diseases and that provide meaningful therapeutic benefit to patients over existing treatments can be approved rapidly. [after FDA, Guidance for Industry Expedited Programs for Serious Conditions - Drugs and Biologics; after NIH-FDA BEST (Biomarkers, Endpoints, and other Tools) Resource https://www.ncbi.nlm.nih.gov/books/NBK338448/]","Accelerated Approval","Glossary CT 2025-09-26"
"C25403","C67497",,"CDISC Glossary","accrual",,"The accumulation or increase in the number of study subject enrolled over time. NOTE: Accrual is often conflated with enrollment but there is a semantic distinction in that accrual represents the rate of subject enrollment. [After Schroen AT, Petroni GR, Wang H, Thielen MJ, Gray R, Benedetti J, Wang XF, Sargent DJ, Wickerham DL, Cronin W, Djulbegovic B, Slingluff CL Jr. Achieving sufficient accrual to address the primary endpoint in phase III clinical trials from U.S. Cooperative Oncology Groups. Clin Cancer Res. 2012 Jan 1;18(1):256-62.] See also target enrollment.","Accrual","Glossary CT 2025-09-26"
"C93495","C67497",,"CDISC Glossary","acronym",,"A word formed from the beginning letters (e.g., ANSI) or a combination of syllables and letters (e.g., MedDRA) of a name or phrase. NOTE: An acronym is usually pronounced as a word, not by speaking each letter individually. Compare to abbreviation","Acronym","Glossary CT 2025-09-26"
"C142550","C67497",,"CDISC Glossary","action letter",,"An official communication from FDA to an NDA sponsor announcing an agency decision. See also approval letter, approvable letter, not-approvable letter.","FDA Action Letter","Glossary CT 2025-09-26"
"C142528","C67497",,"CDISC Glossary","activation (EDC)",,"Enabling an eClinical trial system to capture data; usually used for EDC systems.","Electronic Data Capture Activation","Glossary CT 2025-09-26"
"C95337","C67497",,"CDISC Glossary","active ingredient dose","active substance dose","The amount of a single active substance administered in a single dose.","Active Ingredient Dose","Glossary CT 2025-09-26"
"C82533","C67497",,"CDISC Glossary","active ingredient",,"Any component of a drug product intended to exert pharmacological activity or other direct effect in the diagnosis, cure, mitigation, treatment, or prevention of disease, or to affect the structure or any function of the body of humans or other animals. [After 21 CFR 210.3(b)(7)]","Active Ingredient","Glossary CT 2025-09-26"
"C202486","C67497",,"CDISC Glossary","active substance",,"Substance responsible for the activity of the medicine. NOTE: The protocol may define the active substance in terms of the Anatomical Therapeutic Chemical (ATC) code (level 3-5). [EMA Glossary of regulatory terms; EU Reg 536/2014] See also international nonproprietary name (INN), generic name.","Active Substance","Glossary CT 2025-09-26"
"C98704","C67497",,"CDISC Glossary","adaptive design",,"A clinical trial design that allows for prospectively planned modifications to one or more aspects of the design based on accumulating data from subjects in the trial. [Adaptive Designs for Clinical Trials of Drugs and Biologics Guidance for Industry, FDA] See also master protocol.","Adaptive Design","Glossary CT 2025-09-26"
"C203914","C67497",,"CDISC Glossary","additive effect",,"An interaction between bioactive compounds or drugs that is deemed to be equal to the sum of the individual components. NOTE: The terms additivity, synergism, and antagonism should be used with care, unless the specific pharmacological pathways or mechanisms of action of the investigated drugs are known. [After Calzetta L, Koziol-White C. Pharmacological interactions: Synergism, or not synergism, that is the question. Curr Res Pharmacol Drug Discov. 2021 Aug 11;2:100046.] See also synergistic effect, antagonistic effect, drug interaction.","Additive Effect","Glossary CT 2025-09-26"
"C142382","C67497",,"CDISC Glossary","adequate and well-controlled studies",,"Studies used to support drug marketing authorization and intended to provide substantial evidence of effectiveness required by law to support a conclusion that a drug is effective. NOTE: For additional information see COA glossary of terms. [After 1. FDA Clinical Outcome Assessment (COA) Glossary; 2. 21 CFR 314.126]","Adequate and Well-controlled Study","Glossary CT 2025-09-26"
"C25729","C67497",,"CDISC Glossary","adherence",,"The act of abiding by a stated treatment plan or protocol. [NCI]","Adherence","Glossary CT 2025-09-26"
"C15675","C67497",,"CDISC Glossary","adjuvant therapy",,"Therapy administered to augment or stimulate other treatment modalities or to minimize or prevent disease recurrence subsequent to the main treatment. [After NCI Thesaurus] See also neoadjuvant therapy, treatment.","Adjuvant Therapy","Glossary CT 2025-09-26"
"C142383","C67497",,"CDISC Glossary","administrable dosage form",,"Pharmaceutical dose form for administration to the patient, after any necessary transformation of the manufactured items and their corresponding manufactured dose forms has been carried out. [After ISO 11615 Identification of medicinal products-Data elements and structures for the unique identification and exchange of regulated medicinal product information, Second edition 2017-10] See also route of administration, administration (substance).","Administrable Dosage Form","Glossary CT 2025-09-26"
"C70962","C67497",,"CDISC Glossary","administration (substance)",,"The act of introducing a substance into or onto the body. [After EDQM Standard Terms controlled vocabularies for pharmaceutical dose forms Version 1.2.0 2019. Internal controlled vocabularies for pharmaceutical dose forms. Version 1.2.0 - 28 January 2019.] See also route of administration, administrable dosage form.","Agent Administration","Glossary CT 2025-09-26"
"C142384","C67497",,"CDISC Glossary","admission criteria",,"Basis for selecting target population for a clinical trial. Subjects must be screened to ensure that their characteristics match a list of admission criteria and that none of their characteristics match any single one of the exclusion criteria set up for the study. See also inclusion criteria, exclusion criteria.","Admission Criteria","Glossary CT 2025-09-26"
"C142385","C67497",,"CDISC Glossary","adverse drug reaction (ADR)","adverse drug experience","Any noxious and unintended response associated with the use of a drug in humans. NOTE: 1. Post-approval: an adverse event that occurs at doses normally used in man for prophylaxis, diagnosis, or therapy of diseases or for modification of physiological function. 2. Pre-approval: an adverse event that occurs at any dose and where a causal relationship is at least a reasonable possibility. 3. FDA 21 CFR 310.305 defines an adverse drug experience to include any adverse event, ""whether or not considered to be drug-related."" CDISC recognizes that current usage incorporates the concept of causality. [WHO Technical Report 498(1972); ICH E2A]","Adverse Drug Reaction","Glossary CT 2025-09-26"
"C41331","C67497",,"CDISC Glossary","adverse event (AE)","adverse experience; side effects","Any untoward medical occurrence in a patient or clinical investigation subject administered a pharmaceutical product and which does not necessarily have a causal relationship with this treatment. an adverse event (AE) can therefore be any unintended sign (including an abnormal laboratory finding), symptom, or disease temporally associated with the use of a medicinal (investigational) product, whether or not related to the medicinal (investigational) product. NOTE: For further information, see the ICH Guideline for Clinical safety Data Management: Definitions and standards for expedited Reporting. [After ICH E2A] See also serious adverse event, serious adverse experience.","Adverse Event","Glossary CT 2025-09-26"
"C217358","C67497",,"CDISC Glossary","adverse event of special interest",,"An event (serious or non-serious) of scientific and medical concern specific to the sponsor's product or program, for which ongoing monitoring and rapid communication by the investigator to the sponsor can be appropriate. [ICH E19; ICH E2F]","Adverse Event of Special Interest","Glossary CT 2025-09-26"
"C41332","C67497",,"CDISC Glossary","adverse reaction",,"A response to a medicinal product, devices, or procedures, which is noxious and unintended. Response in this context means that a causal relationship between a medicinal product and an adverse event is at least a reasonable possibility. In the context of drug development, the term is used as a synonym of adverse drug reaction. (After ICH E2A)","Adverse Reaction","Glossary CT 2025-09-26"
"C156645","C67497",,"CDISC Glossary","AEGIS (ADROIT Electronically Generated Information Service)",,"A subscription service that provides subscribing organizations with access to adverse drug reaction data from the Medicines Control Agency ADROIT (Adverse Drug Reaction On-line Information Tracking) database.","ADROIT Electronically Generated Information Service","Glossary CT 2025-09-26"
"C156646","C67497",,"CDISC Glossary","AHIC (American Health Information Community)",,"A US government-charted commission providing input and recommendations to HHS on how to make health records digital and interoperable, and assure the privacy and security of those records (HITSP).","American Health Information Community","Glossary CT 2025-09-26"
"C221447","C67497",,"CDISC Glossary","AI prompt",,"Natural language inputs; a request made by the user to the AI tool. NOTE: It can be a question, code syntax, or any combination of text and code. Depending upon the prompt, the tool returns the response. [After ""What is an AI Prompt?"", GeeksforGeeks, 15 April 2025, https://www.geeksforgeeks.org/what-is-an-ai-prompt/] See also Generative AI (GenAI).","Artificial Intelligence Prompt","Glossary CT 2025-09-26"
"C156621","C67497",,"CDISC Glossary","ALCOA",,"Acronym for a number of attributes or dimensions that are considered of universal importance for data integrity of source data and the records that hold those data. These include that the data and records be: A-Attributable (to both subject and to any actor on a record); L-Legible (available for human review, possible to read electronically if an encoded eRecord); C-Contemporaneous (timing of data collection with respect to the time the observation is made: the more promptly an observation is recorded, the better the quality.); O-Original (the first suitably accurate and reliable recording of data for the intended purpose); A-Accurate (free from error especially as the result of care; an accurate diagnosis conforming exactly to truth or to a standard). NOTE: ALCOA stemmed from FDA's Dr. Stan Woollen's talks in the early 90's on earmarks for the quality of records and has become a widespread acronym reflecting best practices for clarity and usability of data. [From EMA Reflection Paper on eSOURCE in effect since 2010] See also: Data Quality and the Origin of ALCOA. See also: Six Primary Dimensions for Data Quality Assessment. See also ALCOA+, ALCOA++, data integrity, data quality.","Attributable, Legible, Contemporaneous, Original, Accurate","Glossary CT 2025-09-26"
"C156622","C67497",,"CDISC Glossary","ALCOA+","ALCOA Plus","Acronym for a number of attributes or dimensions included in ALCOA, plus the following: Complete, Consistent, Enduring, and Available when needed. NOTE: ALCOA+ is a recent way to summarily refer to the attributes or dimensions of data integrity.) [After EMA Reflection Paper on eSOURCE in effect since 2010. After WHO Annex V, Guidance on Good Data and Record Management Practices] See also ALCOA, ALCOA++, data integrity, data quality.","Attributable, Legible, Contemporaneous, Original, Accurate Plus","Glossary CT 2025-09-26"
"C209459","C67497",,"CDISC Glossary","ALCOA++","ALCOA Plus Plus","An extension to ALCOA+ (A-Attributable; L-Legible; C-Contemporaneous; O-Original; A-Accurate; + Complete, Consistent, Enduring, Available) to include traceability. [After Tetrascience ALCOA++ principles for data integrity Fact Sheet] See also ALCOA, ALCOA+, data integrity, data quality.","Attributable, Legible, Contemporaneous, Original, Accurate Plus Plus","Glossary CT 2025-09-26"
"C142753","C67497",,"CDISC Glossary","alert",,"To cause a high-priority signal (or warning) to be transmitted to the relevant stakeholder by way of the local system or another system (usually according to an established set of rules). For example, the system may transmit an alert to a patient's cardiologist that the patient has experienced another heart attack. another example is that the pharmacy system may transmit an alert to the prescribing physician that a potentially dangerous drug-drug interaction may occur based on the current list of medications. another example is that the system may notify a patient's physician that laboratory results (that are not within normal limits) are available. [HL7 EHR-SFM Glossary of Terms, 2010]","System Alert","Glossary CT 2025-09-26"
"C16275","C67497",,"CDISC Glossary","algorithm",,"Step-by-step procedures for making a series of choices among alternative decisions to reach a calculated result or decision. NOTE: An algorithm may be used clinically to guide treatment decisions for an individual patient on the basis of the patient's clinical outcome or result. [after AMA Style Guide, 9th Edition]","Algorithm","Glossary CT 2025-09-26"
"C142387","C67497",,"CDISC Glossary","alpha error",,"The likelihood that a relationship observed between two variables is due to chance. The probability of a Type 1 error. [Modified from AMA Manual of Style]","Alpha Error","Glossary CT 2025-09-26"
"C41200","C67497",,"CDISC Glossary","amendment",,"A written description of a change(s) to, or formal clarification of, a document.","Amendment","Glossary CT 2025-09-26"
"C142388","C67497",,"CDISC Glossary","American National Standards Institute (ANSI)",,"Founded in 1918, ANSI itself does not develop standards. ANSI's roles include serving as the coordinator for US voluntary standards efforts, acting as the approval body to recognize documents developed by other national organizations as American National Standards, acting as the US representative in international and regional standards efforts, and serving as a clearinghouse for national and international standards development information. [HL7]","American National Standards Institute","Glossary CT 2025-09-26"
"C142389","C67497",,"CDISC Glossary","analysis dataset",,"An organized collection of data or information with a common theme arranged in rows and columns and represented as a single file; comparable to a database table. NOTE: standardizing analysis datasets is intended to make review and assessment of analysis more consistent [ADaM].","Analysis Dataset","Glossary CT 2025-09-26"
"C142390","C67497",,"CDISC Glossary","analysis set",,"A set of subjects whose data are to be included in the main analyses. This should be defined in the statistical section of the protocol. NOTE: There are a number of potential analysis sets, including, for example, the set based upon the intent-to-treat principle. [ICH E9]","Analysis Set of Subjects","Glossary CT 2025-09-26"
"C142391","C67497",,"CDISC Glossary","analysis variables",,"Variables used to test the statistical hypotheses identified in the protocol and analysis plan; variables to be analyzed. See also variable.","Analysis Variable","Glossary CT 2025-09-26"
"C25391","C67497",,"CDISC Glossary","analysis","Analyze","The process of mathematically summarizing and comparing data to confirm or refute a hypothesis. [AMA Manual of Style]","Analysis","Glossary CT 2025-09-26"
"C142436","C67497",,"CDISC Glossary","anchor",,"Designation for a planned activity, often marking the transition between epochs or elements of a clinical study plan (e.g., ""FPFV-first patient first visit"").","Clinical Study Anchor","Glossary CT 2025-09-26"
"C142392","C67497",,"CDISC Glossary","anonymization",,"The process of protecting privacy that removes the association between the identifying data and the data subject. In anonymized data, the patient cannot be identified by the recipient of the information. [ISO TS 25237:2008; TransCelerate Protection of Personal Data in Clinical Documents - A Model Approach]","Anonymization","Glossary CT 2025-09-26"
"C209460","C67497",,"CDISC Glossary","antagonistic effect",,"An interaction between bioactive compounds or drugs that is deemed to be less than the sum of each individual component. NOTE: The terms additivity, synergism, and antagonism should be used with care, unless the specific pharmacological pathways or mechanisms of action of the investigated drugs are known. [After Calzetta L, Koziol-White C. Pharmacological interactions: Synergism, or not synergism, that is the question. Curr Res Pharmacol Drug Discov. 2021 Aug 11;2:100046.] See also synergistic effect, antagonistic effect, drug interaction.","Antagonistic Effect","Glossary CT 2025-09-26"
"C16295","C67497",,"CDISC Glossary","antibody",,"A type of protein made by B lymphocytes in response to a foreign substance (antigen). Each antibody only binds to a specific antigen, helping to destroy the antigen directly or by assisting white blood cells to destroy the antigen. [NCI] See also antigen, immune system, autoimmunity.","Antibody","Glossary CT 2025-09-26"
"C41333","C67497",,"CDISC Glossary","anticipated adverse event",,"Other adverse events that are not study endpoints and are not ""expected"" (i.e., because they are not in the investigator's brochure) that can be anticipated to occur with some frequency during the course of the trial, regardless of drug exposure, depending on the patient population and disease under study. NOTE: Examples of such ""anticipated"" events include known consequences of the underlying disease or condition under investigation, events anticipated from any background regimen, or re-emergence or worsening of a condition relative to pretreatment baseline. [after FDA, Guidance for Industry and Investigators: Safety Reporting Requirements for INDs and BA/BE Studies]","Expected Adverse Event","Glossary CT 2025-09-26"
"C268","C67497",,"CDISC Glossary","antigen",,"Any substance, generally a protein, that stimulates the immune system and elicits an immune response. Recognition by the immune system elicits either a T-lymphocyte response, recognizing processed antigens, or a B-lymphocyte response, producing antibodies that bind to unprocessed antigens. [NCI] See also antibody, immune system, autoimmunity.","Antigen","Glossary CT 2025-09-26"
"C142393","C67497",,"CDISC Glossary","applet",,"A small application, typically downloaded from a server.","Applet","Glossary CT 2025-09-26"
"C142394","C67497",,"CDISC Glossary","applicable regulatory requirement(s)",,"Any law(s) or regulation(s) addressing the conduct of clinical trials of investigational products. [ICH E6(R2) Glossary, 1.4]","Applicable Regulatory Requirement","Glossary CT 2025-09-26"
"C142551","C67497",,"CDISC Glossary","approvable letter",,"An official communication from FDA to an NDA/ BLA sponsor that lists issues to be resolved before an approval can be issued. [Modified from 21 CFR 314.3; Guidance to industry and FDA staff (10/08/2003)]","FDA Approvable Letter","Glossary CT 2025-09-26"
"C70800","C67497",,"CDISC Glossary","approval (in relation to Institutional Review Boards)",,"The affirmative decision of the IRB that the clinical trial has been reviewed and may be conducted at the institution site within the constraints set forth by the IRB, the institution, good clinical practice (GCP), and the applicable regulatory requirements. [ICH E6]","Institutional Review Board Approval","Glossary CT 2025-09-26"
"C70799","C67497",,"CDISC Glossary","approval letter",,"An official communication from FDA to inform an applicant of a decision to allow commercial marketing consistent with conditions of approval. [Modified from 21 CFR 314.3; Guidance to industry and FDA staff (10/08/2003)]","Approval Document","Glossary CT 2025-09-26"
"C16309","C67497",,"CDISC Glossary","artificial intelligence (AI)",,"A system's ability to correctly interpret external data, to learn from such data, and to use those learnings to achieve specific goals and tasks through flexible adaptation. NOTE: Types of artificial intelligence include generative AI and large language models. [Kaplan, A; Haenlein, M (1 January 2019) Business Horizons; IEEE-USA POSITION STATEMENT. Artificial Intelligence Research, Development & Regulation Adopted by the IEEE-USA, Board of Directors (February 2017); After FDA Medical Products Paper: Artificial Intelligence & Medical Products: How CBER, CDER, CDRH, and OCP are Working Together, March 2024] See also machine learning, deep learning, natural language processing, synthetic data.","Artificial Intelligence","Glossary CT 2025-09-26"
"C203934","C67497",,"CDISC Glossary","assent form",,"A document explaining all the relevant information to assist an individual, who is unable to give informed consent on their own behalf, in understanding the expectations and risks in making a decision about a procedure.","Assent Form","Glossary CT 2025-09-26"
"C25217","C67497",,"CDISC Glossary","assessment",,"The interpretation or evaluation of an obtained value by using a test, tool, instrument, or expert judgement of the status of a study subject. [After BEST Resource] See also variable, outcome, endpoint.","Assessment","Glossary CT 2025-09-26"
"C25358","C67497",,"CDISC Glossary","attributable",,"A quality by which records and data can be traced back to the subject to whom they pertain, as well as to those persons who have acted on the records.","Attribution","Glossary CT 2025-09-26"
"C62618","C67497",,"CDISC Glossary","attribute (n)",,"In data modeling, refers to specific items of data that can be collected for a class.","Computer Programming Object Attribute","Glossary CT 2025-09-26"
"C208448","C67497",,"CDISC Glossary","audit certificate",,"Document that certifies that an audit has taken place (at an investigative site, CRO, or clinical research department of a pharmaceutical company). [ICH E6 Glossary]","Audit Certificate","Glossary CT 2025-09-26"
"C142395","C67497",,"CDISC Glossary","audit report",,"A written evaluation by the auditor of the results of the audit. [Modified from ICH E6 Glossary]","Audit Report","Glossary CT 2025-09-26"
"C142396","C67497",,"CDISC Glossary","audit trail",,"A process that captures details such as additions, deletions, or alterations of information in an electronic record without obliterating the original record. An audit trail facilitates the reconstruction of the history of such actions relating to the electronic record. [after ICH E6, CSUICI]","Audit Trail","Glossary CT 2025-09-26"
"C45269","C67497",,"CDISC Glossary","audit",,"A systematic and independent examination of trial-related activities and documents to determine whether the evaluated trial-related activities were conducted and the data were recorded, analyzed, and accurately reported according to the protocol, sponsor's standard operating procedures (SOPs), good clinical practice (GCP), and the applicable regulatory requirement(s). [ICH E6 Glossary]","Audit","Glossary CT 2025-09-26"
"C156618","C67497",,"CDISC Glossary","authorised auxiliary medicinal product",,"A medicinal product that is currently authorised for marketing in a country or region, that is related to the specific needs of the clinical trial as described in the protocol, but not as an investigational medicinal product, regardless of labelling of the auxiliary medicinal product. [after EU CTR]","Authorized Auxiliary Medicinal Product","Glossary CT 2025-09-26"
"C156617","C67497",,"CDISC Glossary","authorised investigational medicinal product",,"A medicinal product that is currently authorised for marketing in a country or region and used as an investigational medicinal product, irrespective of changes to the labelling of the medicinal product. [After EU CTR (EU) No 536/2014] See also investigational medicinal product.","Authorized Investigational Medicinal Product","Glossary CT 2025-09-26"
"C41192","C67497",,"CDISC Glossary","authorization",,"The process of giving someone permission to do or have something. In multi-user computer systems, a system administrator defines for the system which users are allowed access to the system and what privileges of use are permitted. [HL7 EHR-S FM Glossary of Terms, 2010].","Authorization","Glossary CT 2025-09-26"
"C26053","C67497",,"CDISC Glossary","autoimmunity",,"An attack response of the immune system against the body's own components. [Janeway CA Jr, Travers P, Walport M, et al. Immunobiology: The Immune System in Health and Disease. 5th edition. New York: Garland Science; 2001. Autoimmune responses are directed against self antigens. Available from: https://www.ncbi.nlm.nih.gov/books/NBK27155/] See also immune system, antibody, antigen.","Autoimmune Status","Glossary CT 2025-09-26"
"C156473","C67497",,"CDISC Glossary","auxiliary medicinal product",,"A medicinal product that is related to the specific needs of the clinical trial as described in the protocol, but not as an investigational medicinal product. NOTE: Auxiliary medicinal products may be authorised for marketing in a country or region or non-authorised. [after EU-CTR]","Auxiliary Medicinal Product","Glossary CT 2025-09-26"
"C142397","C67497",,"CDISC Glossary","back translation (natural language)",,"The process of translating a document that was translated from one language to another back to the original language. Used to ensure that consent forms, surveys, and other clinical trial documents will be clear and accurate in the translated form.","Back Translation","Glossary CT 2025-09-26"
"C142649","C67497",,"CDISC Glossary","background material",,"Information pertinent to the understanding of a protocol. NOTE: Examples include investigator brochure, literature review, history, rationale, or other documentation that places a study in context or presents critical features.","Protocol Background Material","Glossary CT 2025-09-26"
"C165822","C67497",,"CDISC Glossary","background treatment",,"Medicinal products that are administered to each clinical trial subject, regardless of randomization group, a) to treat the indication which is the object of the study, or b) required in the protocol as part of standard care for a condition that is not the indication under investigation, and is relevant for the clinical trial design. [After Recommendations from the expert group on clinical trials for the implementation of Regulation (EU) No 536/2014' dd 28 June 2017]","Background Treatment","Glossary CT 2025-09-26"
"C142398","C67497",,"CDISC Glossary","balanced study",,"Trial in which a particular type of subject is equally represented in each study group.","Balanced Study","Glossary CT 2025-09-26"
"C142399","C67497",,"CDISC Glossary","bandwidth",,"An indicator of the throughput (speed) of data flow on a transmission path; the width of the range of frequencies on which a transmission medium carries electronic signals. All digital and analog signal channels have a bandwidth.","Bandwidth","Glossary CT 2025-09-26"
"C142400","C67497",,"CDISC Glossary","baseline assessment",,"Assessment of subjects as they enter a trial and before they receive any treatment.","Baseline Assessment","Glossary CT 2025-09-26"
"C142401","C67497",,"CDISC Glossary","baseline characteristics",,"Demographic, clinical, and other data collected for each participant at the beginning of the trial before the intervention is administered. NOTE: Randomized, controlled trials aim to compare groups of participants that differ only with respect to the intervention (treatment). although proper random assignment prevents selection bias, it does not guarantee that the groups are equivalent at baseline. any differences in baseline characteristics are, however, the result of chance rather than bias. The study groups should be compared at baseline for important demographic and clinical characteristics. Baseline data may be especially valuable when the outcome measure can also be measured at the start of the trial. [CONSORT statement]","Baseline Characteristics","Glossary CT 2025-09-26"
"C142402","C67497",,"CDISC Glossary","baseline imbalance",,"A systematic error in creating intervention groups, such that they differ with respect to prognosis. That is, the groups differ in measured or unmeasured baseline characteristics because of the way participants were selected or assigned. NOTE: also used to mean that the participants are not representative of the population of all possible participants. [ICH E9]","Baseline Imbalance","Glossary CT 2025-09-26"
"C202580","C67497",,"CDISC Glossary","basket trial design",,"A type of trial design under a master protocol designed to test a single investigational drug or drug combination in different populations defined by disease stage, histology, number of prior therapies, genetic or other biomarkers, or demographic characteristics. [After US FDA, Master Protocols: Efficient Clinical Trial Design Strategies to Expedite Development of Oncology Drugs and Biologics Guidance for Industry, 2022] See also master protocol.","Basket Trial Design","Glossary CT 2025-09-26"
"C209461","C67497",,"CDISC Glossary","basket trial",,"A type of trial conducted under a master protocol and designed to test a single investigational drug or drug combination in different populations defined by disease stage, histology, number of prior therapies, genetic or other biomarkers, or demographic characteristics. [After US FDA, Master Protocols: Efficient Clinical Trial Design Strategies to Expedite Development of Oncology Drugs and Biologics Guidance for Industry, 2022; Woodcock J, LaVange LM. Master Protocols to Study Multiple Therapies, Multiple Diseases, or Both. N Engl J Med. 2017 Jul 6;377(1):62-70.]. See also basket trial design, adaptive design, master protocol.","Basket Trial","Glossary CT 2025-09-26"
"C142403","C67497",,"CDISC Glossary","Bayesian approaches",,"Approaches to data analysis that provide a posterior probability distribution for some parameter (e.g., treatment effect), derived from the observed data and a prior probability distribution for the parameter. The posterior distribution is then used as the basis for statistical inference. [ICH E9 Glossary]","Bayesian Approach","Glossary CT 2025-09-26"
"C142404","C67497",,"CDISC Glossary","Bayesian statistics",,"Statistical approach named for Thomas Bayes (1701-1761) that has among its features giving a subjective interpretation to probability, accepting the idea that it is possible to talk about the probability of hypotheses being true and of parameters having particular values.","Bayesian Statistics","Glossary CT 2025-09-26"
"C218724","C67497",,"CDISC Glossary","benefit summary",,"A description of any physical, psychological, social, or other potential positive effects to individual participants as a result of participating in the study, addressing immediate potential benefits and/or long-range potential benefits. NOTE: In a benefit summary, no or minimal benefits must also be described. [After ICH M11] See also clinical benefit, treatment benefit.","Trial Participant Benefit Summary","Glossary CT 2025-09-26"
"C142405","C67497",,"CDISC Glossary","beta error",,"Probability of showing no significant difference when a true difference exists; a false acceptance of the null hypothesis. See also Type 2 error. [AMA Manual of style]","Beta Error","Glossary CT 2025-09-26"
"C28232","C67497",,"CDISC Glossary","bias",,"Bias refers to defects in study design, measurement, analysis or interpretation such that they cause a result to depart from the true value in a consistent direction. [after AMA Manual of style, ICH E9, CONSORT Statement]","Bias","Glossary CT 2025-09-26"
"C16341","C67497",,"CDISC Glossary","bioanalytical assays",,"Methods for quantitative measurement of a drug, drug metabolites, or chemicals in biological fluids.","Bioassay","Glossary CT 2025-09-26"
"C70913","C67497",,"CDISC Glossary","bioavailability",,"Rate and extent to which a drug is absorbed or is otherwise available to the treatment site in the body.","Bioavailability","Glossary CT 2025-09-26"
"C179748","C67497",,"CDISC Glossary","biobanking","Specimen Banking","The storage of collected biospecimens for future use. (After NHMRC (2010) National Health and Medical Research Council ""Biobanks information paper"". Canberra. https://www.nhmrc.gov.au/sites/default/files/documents/attachments/Biobanks-information-paper-2010.pdf) See also biospecimen, biorepository.","Biospecimen Storage","Glossary CT 2025-09-26"
"C71763","C67497",,"CDISC Glossary","bioequivalence",,"Scientific basis on which drugs with the same active ingredient(s) are compared. NOTE: To be considered bioequivalent, the bioavailability of two products must not differ significantly when the two products are given in studies at the same dosage under similar conditions.","Bioequivalence","Glossary CT 2025-09-26"
"C307","C67497",,"CDISC Glossary","biological product",,"A product of biological origin applicable to the prevention, treatment, or cure of a disease or condition. Such products may include virus, therapeutic serum, toxin, antitoxin, vaccine, blood, blood component or derivative, allergenic product, protein, or analogous product. NOTE: Biological products may be produced through biotechnology in a living system, such as a microorganism, plant cell, or animal cell. Biological products are generally large, complex molecules and are often more difficult to characterize than small molecule drugs. [After 21 CFR 600.3; After FDA Biological Product Definitions] See also vaccine, cell therapy, gene therapy, pharmaceutical product, drug product, medicinal product.","Biological Agent","Glossary CT 2025-09-26"
"C71778","C67497",,"CDISC Glossary","Biologics licensing application (BLA)",,"Biologics licensing application (BLA). an application to FDA for a license to market a new biologic product in the United states.","Biologics License Application","Glossary CT 2025-09-26"
"C16342","C67497",,"CDISC Glossary","biomarker","biological marker","A defined characteristic that is measured as an indicator of normal biological processes, pathogenic processes, or responses to an exposure or intervention, including therapeutic interventions. Molecular, histologic, radiographic, or physiologic characteristics are types of biomarkers. A biomarker is not an assessment of how an individual feels, functions, or survives. Categories of biomarkers include: susceptibility/risk biomarker; diagnostic biomarker; monitoring biomarker; prognostic biomarker; predictive biomarker; safety biomarker; pharmacodynamic/response biomarker. [NIH-FDA BEST (Biomarkers, Endpoints, and other Tools) Resource, https://www.ncbi.nlm.nih.gov/books/NBK338448/]","Biomarker","Glossary CT 2025-09-26"
"C142406","C67497",,"CDISC Glossary","biometric signature",,"A signature based on the verification of an individual's identity, based on measurement of the individual's physical feature(s) or repeatable action(s), where those features and/or actions are both unique to that individual, and measureable [21 CFR 11]","Biometric Signature","Glossary CT 2025-09-26"
"C48800","C67497",,"CDISC Glossary","biorepository","Biobank","A storage facility for biospecimens. NOTE: The biorepository has stringent guidelines regarding the standardized collection, handling, storage, and documentation of biological specimens. See also biobanking, biospecimen.","Biorepository","Glossary CT 2025-09-26"
"C156644","C67497",,"CDISC Glossary","biosimilar",,"A biological product that is highly similar to the reference product notwithstanding minor differences in clinically inactive components. This requires that there are no clinically meaningful differences between the biological product and the reference product in terms of the safety, purity, and potency of the product (see section 351(i)(2) of the PHS Act). [after FDA, Guidance for Industry: Quality Considerations in Demonstrating Biosimilarity of a Therapeutic Protein Product to a Reference Product]","Biosimilar","Glossary CT 2025-09-26"
"C70699","C67497",,"CDISC Glossary","biospecimen","Biological Sample; Biological Specimen; Specimen","Any material from a biological entity used for testing, diagnostic, propagation, treatment, or research purposes. [See SDTM codelists: https://evsexplore.semantics.cancer.gov/evsexplore/subset/ncit/C78734; https://evsexplore.semantics.cancer.gov/evsexplore/subset/ncit/C111114] See also biobanking, biorepository.","Biospecimen","Glossary CT 2025-09-26"
"C16347","C67497",,"CDISC Glossary","biostatistics",,"Branch of statistics applied to the analysis of biological phenomena.","Biostatistics","Glossary CT 2025-09-26"
"C142407","C67497",,"CDISC Glossary","blind review",,"Checking and assessing data prior to breaking the blind, for the purpose of finalizing the planned analysis. [Modified ICH E9]","Blind Review","Glossary CT 2025-09-26"
"C142408","C67497",,"CDISC Glossary","blinded (masked) medications",,"Products that appear identical in size, shape, color, flavor, and other attributes to make it very difficult for subjects and investigators (or anyone assessing the outcome) to determine which medication is being administered.","Blinded Medication","Glossary CT 2025-09-26"
"C70840","C67497",,"CDISC Glossary","blinded study",,"A study in which the subject, the investigator, or anyone assessing the outcome is unaware of the treatment assignment(s). NOTE: Blinding is used to reduce the potential for bias. [Modified ICH E6 Glossary] See also blinding/masking, double-blind study, single-blind study, triple-blind study; contrast with open-label or unblinded study.","Blinded Clinical Study","Glossary CT 2025-09-26"
"C49068","C67497",,"CDISC Glossary","blinding",,"A procedure to limit bias by preventing subjects and/ or study personnel from identifying which treatments or procedures are administered, or from learning the results of tests and measures undertaken as part of a clinical investigation. [After Abhaya Indrayan, Martin P. Holt. Concise Encyclopedia of Biostatistics for Medical Professionals. Chapman & Hall; November 17, 2016] See also double-blind study, single-blind study, triple-blind study. Contrast with open-label and/or unblinded study, masking.","Blinded","Glossary CT 2025-09-26"
"C28221","C67497",,"CDISC Glossary","blood draw",,"The collection of blood from a vein, most commonly via needle venipuncture. (NCI)","Phlebotomy","Glossary CT 2025-09-26"
"C142701","C67497",,"CDISC Glossary","branch",,"Point within a study design where there is an allocation of subject subsets to particular procedures or treatment groups.","Study Branch","Glossary CT 2025-09-26"
"C80012","C67497",,"CDISC Glossary","browser",,"Computer program that runs on the user's desktop computer and is used to navigate the World Wide Web. See also web browser.","HTML Browser","Glossary CT 2025-09-26"
"C63626","C67497",,"CDISC Glossary","cache",,"Storage area on a computer's hard drive where the browser stores (for a limited time) web pages and/or graphic elements.","Memory Cache","Glossary CT 2025-09-26"
"C142409","C67497",,"CDISC Glossary","carry-over effect",,"Effects of treatment that persist after treatment has been stopped, sometimes beyond the time of a medication's known biological activity.","Carry-Over Effect","Glossary CT 2025-09-26"
"C142588","C67497",,"CDISC Glossary","case history",,"An adequate and accurate record prepared and maintained by an investigator that records all observations and other data pertinent to the investigation of each individual administered the investigational drug (device or other therapy) or employed as a control in the investigation. NOTE: Case histories include the case report forms and supporting data including, for example, signed and dated consent forms and medical records including, for example, progress notes of the physician, the individual's hospital chart(s), and the nurses' notes. The case history for each individual shall document that informed consent was obtained prior to participation in the study. [21 CFR 312.62(b)]","Investigational Subject Case History","Glossary CT 2025-09-26"
"C40988","C67497",,"CDISC Glossary","case report form (CRF)","case record form","A printed, optical, or electronic document designed to record all of the protocol-required information to be reported to the sponsor for each trial subject. NOTE: In common usage, CRF can refer to either a CRF page, which denotes a group of one or more data items, linked together for collection and display, or a casebook, which includes the entire group of CRF pages on which a set of clinical study observations can be or have been collected by completion of such CRF pages for a subject in a clinical study. See also CRF (paper), eCRF. [ICH E6 Glossary, FDA Final Guidance on eSource].","Case Report Form","Glossary CT 2025-09-26"
"C142411","C67497",,"CDISC Glossary","case report tabulations (CRT)",,"In a paper submission, listings of data that may be organized by domain (type of data) or by subject. See also eCRT.","Case Report Tabulation","Glossary CT 2025-09-26"
"C15197","C67497",,"CDISC Glossary","case-control study",,"A study in which individuals to an outcome (cases) are compared with those who do not have the outcome (controls). NOTE: The outcome variable (disease, event, experience, biomarker) is chosen first, and the exposure is evaluated in cases vs controls to see whether there is an association between exposure and outcome. [After AMA Manual of Style] See also outcome, observational study.","Case-Control Study","Glossary CT 2025-09-26"
"C142412","C67497",,"CDISC Glossary","categorical data",,"Data evaluated by sorting values (for example, severe, moderate, and mild) into various categories.","Categorical Data","Glossary CT 2025-09-26"
"C142413","C67497",,"CDISC Glossary","causality assessment",,"An evaluation performed by a medical professional concerning the likelihood that a therapy or product under study caused or contributed to an adverse event.","Causality Assessment","Glossary CT 2025-09-26"
"C142415","C67497",,"CDISC Glossary","CDISC Library",,"A global, accessible, electronic library, which, through advanced technology, enables precise and standardized data element definitions that can be used within applications and across studies to improve biomedical research and its link with healthcare. NOTE: Formerly known as CDISC SHARE. [CDISC]","CDISC Library","Glossary CT 2025-09-26"
"C142416","C67497",,"CDISC Glossary","CDISC standards",,"A set of models, implementation guides, controlled vocabularies, and exchange formats developed by the Clinical Data Interchange Standards Consortium (CDISC), which are intended to provide for consistent use of common representations of data, terms and specifications. NOTE: These standards apply to translational research, electronic submission of clinical data, and the life-cycle of clinical product development, which includes protocol representation, data collection, aggregation, tabulation, and analysis and unambiguous information exchange across disparate systems. [After https://www.ncbi.nlm.nih.gov]. See also standard, data standards, Study Data Standardization Plan, and Standards Development Organization.","CDISC Standard","Glossary CT 2025-09-26"
"C70601","C67497",,"CDISC Glossary","cell therapy",,"The prevention or treatment of human disease by the administration of cells that have been selected, multiplied, and pharmacologically treated or altered outside the body (ex vivo), or methods (pharmacological as well as nonpharmacological) to modify the function of intrinsic cells of the body for therapeutic purposes (in vivo). NOTE: Cell therapies can be classified based on therapeutic indication, cell type, source of cells, and underlying technology, among others, in medical and regulatory contexts. [After https://www.sciencedirect.com/topics/neuroscience/cell-therapy; After Regulation (EC) No 1394/2007 of the European Parliament and of the Council of 13 November 2007.] See also regenerative medicine therapy, regenerative medicine advanced therapy, gene therapy, biological product.","Cellular Therapy","Glossary CT 2025-09-26"
"C142417","C67497",,"CDISC Glossary","certified copy",,"A copy (irrespective of the type of media used) of the original record that has been verified (i.e., by a dated signature or by generation through a validated process) to have the same information, including data that describe the context, content, and structure, as the original. [ICH E6 (R2)]","Certified Copy","Glossary CT 2025-09-26"
"C142418","C67497",,"CDISC Glossary","certified IRB professional (CIP)",,"Persons certified to participate on an institutional review board, who satisfy the educational and employment requirements and pass an examination conducted by the applied Research ethics national association (aRena), the membership division of Public Responsibility in Medicine and Research (PRiM&R).","Certified IRB Professional","Glossary CT 2025-09-26"
"C158128","C67497",,"CDISC Glossary","challenge agent",,"A non-investigational medicinal product (NIMP) given to trial subjects to produce a physiological response that is necessary before the pharmacological action of the investigational medicinal product can be assessed. [After Recommendations from the expert group on clinical trials for the implementation of Regulation (EU) No 536/2014' dd 28 June 2017]","Challenge Agent","Glossary CT 2025-09-26"
"C156647","C67497",,"CDISC Glossary","CHI (consolidated health informatics)",,"CHI began as an eGov initiative to establish a portfolio of existing health information interoperability standards (health vocabulary and messaging) enabling all agencies in the federal health enterprise to ""speak the same language"" based on common enterprise-wide business and information technology architectures. CHI is currently managed under the Office of the National Coordinator for Health Informational Technology's (ONC) Federal Health Architecture (FHA) Program Management Office. Ref: The United States Health Information Knowledgebase [USHIK]. [HITSP]","Consolidated Health Informatics","Glossary CT 2025-09-26"
"C41106","C67497",,"CDISC Glossary","class",,"A definition of objects with properties (attributes, methods, relationships) that all objects in the class have in common. [HL7, 2001] in data modeling, a class defines a set of objects that share the same attributes, relationships, and semantics. A class is usually an entity that represents a person, place, or thing.","Object Class","Glossary CT 2025-09-26"
"C142419","C67497",,"CDISC Glossary","clean database",,"A set of reviewed data in which errors have been resolved to meet QA requirements for error rate and in which measurements and other values are provided in acceptable units; database that is ready to be locked. See also database lock, clean file.","Clean Database","Glossary CT 2025-09-26"
"C142420","C67497",,"CDISC Glossary","clean file",,"When all data cleaning is completed and database is ready for quality review and unblinding.","Clean File","Glossary CT 2025-09-26"
"C142421","C67497",,"CDISC Glossary","client",,"A program that makes a service request of another program, usually running on a server, that fulfills the request. Web browsers (such as Firefox and Microsoft explorer) are clients that request HTML files from web servers.","Client Computer","Glossary CT 2025-09-26"
"C142422","C67497",,"CDISC Glossary","clinical benefit",,"A therapeutic intervention may be said to confer clinical benefit if it prolongs life, improves function, and/or improves the way a subject feels. See also benefit summary, treatment benefit.","Clinical Benefit","Glossary CT 2025-09-26"
"C142423","C67497",,"CDISC Glossary","clinical clarification",,"A query resolution received from the sponsor staff (medical monitors, DSMB monitoring board, etc.). See also self-evident change.","Clinical Clarification","Glossary CT 2025-09-26"
"C15783","C67497",,"CDISC Glossary","clinical data",,"Data pertaining to the medical well-being or status of a patient. Category also includes clinical reports and individual patient data (IPD) as defined in the EMA Policy 0070 Implementation Guide. [http://www.ema.eoropa.eu/docs/en_GB/document_library/REPORT/2014/10/WC500174378.PDF]","Clinical Data","Glossary CT 2025-09-26"
"C142424","C67497",,"CDISC Glossary","clinical development plan",,"A document that describes the collection of clinical studies that are to be performed in sequence, or in parallel, with a particular active substance, device, procedure, or treatment strategy, typically with the intention of submitting them as part of an application for a marketing authorization. NOTE: The plan should have appropriate decision points and allow modification as knowledge accumulates. [from ICH E9] See also development plan.","Clinical Development Plan","Glossary CT 2025-09-26"
"C142426","C67497",,"CDISC Glossary","clinical document architecture",,"Specification for the structure and semantics of ""clinical documents"" for the purpose of exchange. [HL7; SPL]","Clinical Document Architecture","Glossary CT 2025-09-26"
"C142425","C67497",,"CDISC Glossary","clinical document",,"A documentation of clinical observations and services. NOTE: an electronic document should incorporate the following characteristics: persistence, stewardship, potential for authentication, wholeness, and human readability. [SPL]","Clinical Document","Glossary CT 2025-09-26"
"C39547","C67497",,"CDISC Glossary","clinical efficacy",,"Power or capacity to produce a desired effect (i.e., appropriate pharmacological activity in a specified indication) in humans. [SQA]","Treatment Efficacy","Glossary CT 2025-09-26"
"C142427","C67497",,"CDISC Glossary","clinical encounter",,"Contact between subject/patient and healthcare practitioner/researcher, during which an assessment or activity is performed. Contact may be physical or virtual. [CDISC]","Clinical Encounter","Glossary CT 2025-09-26"
"C70755","C67497",,"CDISC Glossary","clinical hold (of a clinical trial)",,"An order issued by FDA to the sponsor to delay a proposed clinical investigation or to suspend an ongoing investigation. NOTE: The clinical hold order may apply to one or more of the investigations covered by an IND. [21 CFR 312.42] See also suspension (of a clinical trial), termination (of a clinical trial), temporary halt (of a clinical trial).","Study on Hold","Glossary CT 2025-09-26"
"C142430","C67497",,"CDISC Glossary","clinical investigation",,"Any experiment that involves a test article and one or more human subjects, and that either must meet the requirements for prior submission to the FDA or the results of which are intended to be later submitted to, or held for inspection by, the FDA as part of an application for a research or marketing permit. Considered synonymous with clinical research by FDA. See clinical study, clinical trial. [FDA Science & Research]","Clinical Investigation","Glossary CT 2025-09-26"
"C142552","C67497",,"CDISC Glossary","clinical outcome assessment (COA) qualification",,"A formal conclusion by FDA that, within the stated context of use, the results of the COA measurement can be relied upon to have a specific interpretation and application. NOTE: For qualified COAs, FDA permits drug developers to use the COA in the qualified context in IND and NDA/BLA submissions without requesting that the relevant CDER review group reconsider and reconfirm the suitability of the COA. [FDA Clinical Outcome Assessment (COA) Glossary]","FDA Clinical Outcome Assessment Qualification","Glossary CT 2025-09-26"
"C142378","C67497",,"CDISC Glossary","clinical outcome assessment (COA)",,"Any assessment that may be influenced by human choices, judgment, or motivation and may support or refute treatment benefit. NOTE: Unlike biomarkers that rely completely on an automated process or algorithm, COAs reflect interpretation of reporting from a patient, a clinician, or an observer. There are four types of COAs. See also patient-reported outcome (PRO), clinician-reported outcome (ClinRO), observer-reported outcome (ObsRO), and performance outcome (PerfO). [FDA Clinical Outcome Assessment (COA) Glossary]","Clinical Outcome Assessment","Glossary CT 2025-09-26"
"C16975","C67497",,"CDISC Glossary","clinical pharmacology",,"Science that deals with the characteristics, effects, properties, reactions, and uses of drugs, particularly their therapeutic value in humans, including their toxicology, safety, pharmacodynamics, and pharmacokinetics (ADME).","Clinical Pharmacology","Glossary CT 2025-09-26"
"C142435","C67497",,"CDISC Glossary","clinical research and development",,"The testing of a drug compound in humans primarily done to determine its safety and pharmacological effectiveness. Clinical development is done in phases, which progress from very tightly controlled dosing of a small number of subjects to less tightly controlled studies involving large numbers of patients. [SQA]","Clinical Research and Development","Glossary CT 2025-09-26"
"C25465","C67497",,"CDISC Glossary","clinical research associate (CRA)",,"Person employed by a study sponsor or by a contract research organization (CRO) acting on a sponsor's behalf, who monitors the status, data integrity, and protocol adherence of investigator sites participating in a clinical study. See also sponsor.","Clinical Research Associate","Glossary CT 2025-09-26"
"C51811","C67497",,"CDISC Glossary","clinical research coordinator (CRC)","clinical coordinator; research coordinator; study coordinator; trial coordinator","A qualified study staff member who manages the participation of subjects according to the study protocol. NOTE: CRCs coordinate communication among the subject, investigator, and sponsor. Responsibilities may also include screening, enrollment, monitoring of potential participants, and informed consent. [After Clinical Research Manual: Practical Tools and Templates for Managing Clinical Research Cavalieri Jennifer and Rupp Mark Clinical Research Manual: Practical Tools and Templates for Managing Clinical Research 336pp US$44.95 Sigma Theta Tau 9781937554637 1937554635 [Formula: see text]. Nurs Manag (Harrow). 2014 Aug 28;21(5):13.; After SOCRA]","Clinical Coordinator","Glossary CT 2025-09-26"
"C70668","C67497",,"CDISC Glossary","clinical research subject",,"A person who is enrolled into a clinical study or trial. See also study, trial, and study population.","Clinical Study Subject","Glossary CT 2025-09-26"
"C82562","C67497",,"CDISC Glossary","clinical significance",,"Change in a subject's clinical condition regarded as important whether or not due to the test intervention. NOTE: some statistically significant changes (in blood tests, for example) have no clinical significance. The criterion or criteria for clinical significance should be stated in the protocol. The term ""clinical significance"" is not advisable unless operationally defined.","Clinical Significance","Glossary CT 2025-09-26"
"C142437","C67497",,"CDISC Glossary","clinical study data element",,"A single observation associated with a subject in a clinical study. A data element in an eCRF represents the smallest unit of observation captured for a subject in a clinical investigation. NOTE: Examples include birth date, white blood cell count, pain severity measure, and other clinical observations made and documented during a study. Data element identifiers should be attached to each data element as it is entered or transmitted by the originator into the eCRF. See also eCRF, data element identifier, data originator, item. [After FDA Guidance for Industry Electronic Source Data in Clinical Investigations , Body text and Glossary]","Clinical Study Data Element","Glossary CT 2025-09-26"
"C142439","C67497",,"CDISC Glossary","clinical study report",,"A written description of a study of any therapeutic, prophylactic, or diagnostic agent conducted in human subjects, in which the clinical and statistical description, presentations, and analysis are fully integrated into a single report. NOTE: For further information, see the ICH Guideline for Structure and Content of Clinical Study Reports. [ICH E6 Glossary]","Clinical Study Report","Glossary CT 2025-09-26"
"C15206","C67497",,"CDISC Glossary","clinical study",,"A clinical study involves research using human volunteers (also called participants) that is intended to add to medical knowledge. There are two main types of clinical studies: clinical trials (also called interventional studies) and observational studies. [ClinicalTrials.gov] See also clinical trial.","Clinical Study","Glossary CT 2025-09-26"
"C142440","C67497",,"CDISC Glossary","clinical trial authorization",,"Authorization granted by a Medicines Regulatory Agency to conduct a clinical trial in a jurisdiction. NOTE: If an ethical committee allows a trial to proceed it is called an approval to proceed. [After ISO 11615:2017, 3.1.12]","Clinical Trial Authorization","Glossary CT 2025-09-26"
"C142441","C67497",,"CDISC Glossary","clinical trial data",,"Data collected in the course of a clinical trial. See also clinical trial information.","Clinical Trial Data","Glossary CT 2025-09-26"
"C142446","C67497",,"CDISC Glossary","clinical trial exemption (CTX)",,"A scheme that allows sponsors to apply for approval for each clinical study in turn, submitting supporting data to the Medicines Control Agency (MCA), which approves or rejects the application (generally within 35 working days). NOTE: Approval means that the company is exempt from the requirement to hold a clinical trial certificate (CTC). [UK]","Clinical Trial Exemption","Glossary CT 2025-09-26"
"C142447","C67497",,"CDISC Glossary","clinical trial information",,"Data collected in the course of a clinical trial or documentation related to the integrity or administration of that data. A superset of clinical trial data.","Clinical Trial Information","Glossary CT 2025-09-26"
"C142449","C67497",,"CDISC Glossary","clinical trial materials",,"Complete set of supplies provided to an investigator by the trial sponsor.","Clinical Trial Material","Glossary CT 2025-09-26"
"C142452","C67497",,"CDISC Glossary","clinical trial registry",,"A web-based publicly accessible platform for providing structured information about clinical trials. NOTE: Such registries help patients, family members, health care professionals, researchers, and the public identify studies in which they might participate. Some registries include clinical trial results. Examples include: EU Clinical Trials Register (EU CTR), for studies in the EU or the EEA after 1 May 2001; ClinicalTrials.gov, a web-based resource from the National Library of Medicine (NLM) in the US. [After International Committee of Medical Journal Editors]","Clinical Trial Registry","Glossary CT 2025-09-26"
"C156620","C67497",,"CDISC Glossary","clinical trial results registry",,"A web-based publicly accessible platform for providing structured summary results information about clinical trials. See also clinical trial registry.","Clinical Trial Results Registry","Glossary CT 2025-09-26"
"C71104","C67497",,"CDISC Glossary","clinical trial","Interventional Clinical Trial; Interventional Study","A research investigation involving human subjects that is designed to answer specific questions about the safety and efficacy of a biomedical intervention (drug, treatment, device) or new ways of using a known drug, treatment, or device). NOTE: NIH Office of Science Policy further specifies that a clinical trial is a type of research study that prospectively assigns subjects to interventions, and the EU clinical trial regulations set forth 3 specific conditions, any one of which qualifies a study as a clinical trial. These conditions include applying diagnostic or monitoring procedures not used in normal clinical practice to subjects. [After ICH E6 [R2], EU CTR 2014] See also clinical study, clinical investigation, randomized controlled trial (RCT).","Clinical Trial","Glossary CT 2025-09-26"
"C142453","C67497",,"CDISC Glossary","clinician-reported outcome (ClinRO)",,"A type of clinical outcome assessment. A measurement based on a report that comes from a trained health-care professional after observation of a patient's health condition. [After BEST Resource]","Clinician-reported Outcome","Glossary CT 2025-09-26"
"C165824","C67497",,"CDISC Glossary","co-packaged product",,"Two or more separate products packaged together in a single package or as a unit and composed of drug and device products, device and biological products, or biological and drug products. [After 21 CFR 3.2 (e) FAQ] See also combination product, single-entity product, cross-labeled product.","Co-packaged Product","Glossary CT 2025-09-26"
"C142454","C67497",,"CDISC Glossary","codelist",,"Finite list of codes and their meanings that represent the only allowed values for a data item. A codelist is one type of controlled vocabulary. See also controlled vocabulary.","Codelist","Glossary CT 2025-09-26"
"C80216","C67497",,"CDISC Glossary","coding",,"In clinical trials, the process of assigning data to categories for analysis. NOTE: Adverse events, for example, may be coded using MedDRA.","Encode","Glossary CT 2025-09-26"
"C142455","C67497",,"CDISC Glossary","cognitive debriefing",,"A qualitative research tool used to determine whether concepts and items are understood by patients in the same way that PRO instrument developers intend. NOTE: Cognitive debriefing interviews involve incorporating follow-up questions in a field test interview to gain better understanding of how patients interpret questions asked of them and to collect and consider all concepts elicited by an item. [from PRO Draft Guidance Glossary]","Cognitive Debriefing","Glossary CT 2025-09-26"
"C15208","C67497",,"CDISC Glossary","cohort study",,"Study of a group of individuals, some of whom are exposed to a variable of interest, in which subjects are followed over time. NOTE: Cohort studies can be prospective or retrospective. [After AMA Manual of Style] See also prospective study, observational study, retrospective study, case-control study, cohort.","Cohort Study","Glossary CT 2025-09-26"
"C61512","C67497",,"CDISC Glossary","cohort",,"A group of individuals who share a common exposure, experience or characteristic or a group of individuals followed-up or traced over time in a cohort study. [AMA Manual of Style] See also cohort study.","Cohort","Glossary CT 2025-09-26"
"C54696","C67497",,"CDISC Glossary","combination product",,"A product composed of two or more different types of medical products (i.e., a combination of a drug, device, and/or biological product with one another and are referred to as ""constituent parts"" of the combination product). NOTE: A combination product might be a single-entity product, a co-packaged product or a cross-labeled product. [After 21 CFR 3.2 (e)] See also single-entity product, co-packaged product, cross-labeled product.","Combination Product","Glossary CT 2025-09-26"
"C142456","C67497",,"CDISC Glossary","commercially confidential information (CCI)",,"Any information contained in clinical reports or other documents that is not in the public domain or publicly available and where disclosure may undermine the legitimate economic interest of the company (the Marketing Application Holder) and cause harm (if disclosed). [After EMA Policy 0070 implementation Guide]","Commercially Confidential Information","Glossary CT 2025-09-26"
"C19984","C67497",,"CDISC Glossary","common data element (CDE)",,"A structured item characterized by a stem and response options together with a history of usage that can be standardized for research purposes across studies conducted by and for NIH. NOTE: The mark up or tagging facilitates document indexing, search and retrieval, and provides standard conventions for insertion of codes. [NCI, CaBIG]. See also item, item (PRO), stem, data element, data element identifier.","Common Data Element","Glossary CT 2025-09-26"
"C142575","C67497",,"CDISC Glossary","Common Technical Document",,"A format agreed upon by ICH to organize applications to regulatory authorities for registration of pharmaceuticals for human use. [ICH] See also eCTD.","ICH Common Technical Document","Glossary CT 2025-09-26"
"C203916","C67497",,"CDISC Glossary","Comparative Effectiveness Research (CER)",,"A type of study in which the intervention of interest is compared against another intervention(s) of interest to see if there is evidence about the effectiveness, benefits and harms of different treatment options. [NCI]","Comparative Effectiveness Research","Glossary CT 2025-09-26"
"C142457","C67497",,"CDISC Glossary","comparative study",,"One in which the investigative drug is compared against another product, either active drug or placebo.","Comparative Study","Glossary CT 2025-09-26"
"C142458","C67497",,"CDISC Glossary","comparator (product)",,"An investigational or marketed product (i.e., active control), or placebo, used as a reference in a clinical trial. [ICH E6 Glossary] See also control.","Comparator","Glossary CT 2025-09-26"
"C202465","C67497",,"CDISC Glossary","compendial name",,"A name within a pharmaceutical compendium that designates a small or large molecule substance that complies with compendial standards for strength, quality, and purity. NOTE: Used for all drugs within the US. [After USP Nomenclature Guidelines (last revision on March 30, 2020)] See also proprietary name, generic name, international nonproprietary name (INN), established name, medicinal product name.","Compendial Name","Glossary CT 2025-09-26"
"C142544","C67497",,"CDISC Glossary","Competent Authority (CA)",,"The regulatory body charged with monitoring compliance with the national statutes and regulations of European Member States.","European Union Competent Authority","Glossary CT 2025-09-26"
"C142734","C67497",,"CDISC Glossary","compliance (in relation to trials)",,"Adherence to specifications in the study protocol and regulations by patients, investigators, and other study staff. NOTE: The investigator and sponsor have obligations to follow the protocol and GCP. [After Spilker, B. Guide to Clinical Trials. Lippincott Williams & Wilkins. 2000.]","Trial Compliance","Glossary CT 2025-09-26"
"C42608","C67497",,"CDISC Glossary","computer application","application software","Software designed to fill specific needs of a user; for example, software for navigation, project management, or process control.","Computer Application","Glossary CT 2025-09-26"
"C142433","C67497",,"CDISC Glossary","concept of interest",,"In the context of clinical outcomes, the thing measured by a COA assessment (e.g., pain intensity). [After Clinical Outcome Assessment (COA) Glossary of Terms FDA FDA eCOA Glossary]","Clinical Outcomes Assessment Concept of Interest","Glossary CT 2025-09-26"
"C45728","C67497",,"CDISC Glossary","concept",,"Discrete notion having a single meaning. In a controlled vocabulary a concept is mapped to one or more of the words that convey its meaning.","Concept","Glossary CT 2025-09-26"
"C156640","C67497",,"CDISC Glossary","concerned member state (CMS)",,"A classification of a Member States in the Mutual Recognition Procedure (MRP) in the European authorization route resulting in a mutually recognized product. In the Mutual Recognition Procedure, one or more Member States that is a CMS is asked to mutually recognize the Market Authorization of the Reference Member State (RMS). [After Heads of Medicines Agencies (HMA) website http://www.hma.eu/medicinesapprovalsystem.html] See also Mutual Recognition Procedure (MRP) and Reference Member State (RMS).","Concerned Member State","Glossary CT 2025-09-26"
"C53630","C67497",,"CDISC Glossary","concomitant medication",,"Any product that is taken by clinical trial participants that is not the investigational medicinal product or auxiliary medicinal product, and is not relevant for the design of the clinical trial. [After Regulation (EU) no 535/2014 Clinical Trials on medicinal products for human use] See also Investigational medicinal product, auxiliary medicinal product.","Concomitant Therapy","Glossary CT 2025-09-26"
"C153144","C67497",,"CDISC Glossary","conduct",,"An ongoing and/or past performance of a formal investigation as specified in a study protocol. [NCI]","Study Conduct","Glossary CT 2025-09-26"
"C53324","C67497",,"CDISC Glossary","confidence interval (CI)",,"A measure of the precision of an estimated value. The interval represents the range of values, consistent with the data, that is believed to encompass the ""true"" value with high probability (usually 95%). The confidence interval is expressed in the same units as the estimate. Wider intervals indicate lower precision; narrow intervals, greater precision. [CONSORT Statement]","Confidence Interval","Glossary CT 2025-09-26"
"C16466","C67497",,"CDISC Glossary","confidentiality",,"Prevention of disclosure to other than authorized individuals of a sponsor's proprietary information or of a subject's identity. [ICH E6 Glossary]","Confidentiality","Glossary CT 2025-09-26"
"C142460","C67497",,"CDISC Glossary","confirmatory trial",,"Phase 3 trial with results that confirm the preliminary evidence accumulated in earlier phases that a drug is safe and effective for use for the intended indication and recipient population. [After ICH E8] See also non-confirmatory trial result, pragmatic trial. Compare to exploratory trial.","Confirmatory Trial","Glossary CT 2025-09-26"
"C142461","C67497",,"CDISC Glossary","conformity assessment",,"The process by which compliance with the EMA's essential requirements is assessed. See also Notified Body (NB).","Conformity Assessment","Glossary CT 2025-09-26"
"C209462","C67497",,"CDISC Glossary","confounding variable",,"A factor that may interfere with the interpretation of the effect of an exposure on an outcome. [After AMA Manual of Style]","Confounding Variable","Glossary CT 2025-09-26"
"C16468","C67497",,"CDISC Glossary","consent form","informed consent form","Document used during the informed consent process that is the basis for explaining to potential subjects the risks and potential benefits of a study and the rights and responsibilities of the parties involved. NOTE: The informed consent document provides a summary of a clinical trial (including its purpose, the treatment procedures and schedule, potential risks and benefits, alternatives to participation, etc.) and explains an individual's rights as a subject. it is designed to begin the informed consent process, which consists of conversations between the subject and the research team. if the individual then decides to enter the trial, s/he gives her/his official consent by signing the document. Informed consent is sometimes administered electronically, i.e., eICF. See also informed consent.","Consent Form","Glossary CT 2025-09-26"
"C156633","C67497",,"CDISC Glossary","construct validation (COA)","construct validation (re COA)","Establishing, using quantitative methods, the extent to which the relationships among items, domains, and concepts of a clinical outcome assessment (COA) conform to a priori hypotheses concerning logical relationships that should exist with other measures or characteristics of patients and patient groups. [NIH-FDA BEST (Biomarkers, Endpoints, and other Tools) Resource, https://www.ncbi.nlm.nih.gov/books/NBK338448/] See also validation.","Clinical Outcome Assessment Construct Validation","Glossary CT 2025-09-26"
"C142462","C67497",,"CDISC Glossary","consumer safety officer (CSO)",,"FDA official who coordinates the review process of various applications.","Consumer Safety Officer","Glossary CT 2025-09-26"
"C156632","C67497",,"CDISC Glossary","content validation (COA)","content validation (re COA)","Establishing from qualitative research the extent to which the clinical outcome assessment (COA) instrument measures the concept of interest including evidence that the items and domains of an instrument are appropriate and comprehensive relative to its intended measurement concept, population, and use. [NIH-FDA BEST (Biomarkers, Endpoints, and other Tools) Resource, https://www.ncbi.nlm.nih.gov/books/NBK338448/] See also validation.","Clinical Outcome Assessment Content Validation","Glossary CT 2025-09-26"
"C78690","C67497",,"CDISC Glossary","content validity",,"The extent to which a variable (for example, a rating scale) measures what it is supposed to measure. [ICH E9 Glossary] evidence from qualitative research demonstrating that the instrument measures the concept of interest, including evidence that the items and domains of an instrument are appropriate and comprehensive, relative to its intended measurement concept, population, and use. NOTE: Testing other measurement properties will not replace or rectify problems with content validity. [FDA Final PRO Guidance]","Content Validity","Glossary CT 2025-09-26"
"C142434","C67497",,"CDISC Glossary","context of use",,"In the context of clinical outcomes, a comprehensive statement that fully and clearly describes and justifies the way a COA is to be used and the drug development-related purpose of the use. NOTE: The context of use defines the boundaries within which the available data adequately justify use of the COA and describes important criteria regarding the circumstances under which the COA is qualified. [FDA Clinical Outcome Assessment (COA) Glossary]","Clinical Outcomes Assessment Context of Use","Glossary CT 2025-09-26"
"C142463","C67497",,"CDISC Glossary","contingent subject trial contact",,"Planned response to an anticipated but conditional event in a clinical trial. [CDISC Trial Design Project]","Contingent Subject Trial Contact","Glossary CT 2025-09-26"
"C54148","C67497",,"CDISC Glossary","contract research organization (CRO)",,"A person or an organization (commercial, academic, or other) contracted by the sponsor to perform one or more of a sponsor's trial-related duties and functions. [ICH E6 Glossary]","Contract Research Organization","Glossary CT 2025-09-26"
"C115464","C67497",,"CDISC Glossary","contract",,"A written, dated, and signed agreement between two or more involved parties that sets out any arrangements on delegation and distribution of tasks and obligations and, if appropriate, on financial matters. The protocol may serve as the basis of a contract. [ICH E6 Glossary]","Contractual Agreement","Glossary CT 2025-09-26"
"C28143","C67497",,"CDISC Glossary","control group",,"A cohort of study participants that is defined for the purpose of comparison to the treatment group in a controlled trial. NOTE: In an epidemiological study, this cohort may or may not have the outcome of interest. [After 21 CFR 314.126] See also control, controlled study, arm (protocol).","Control Group","Glossary CT 2025-09-26"
"C142464","C67497",,"CDISC Glossary","control of electronic records",,"To prepare and maintain case histories and other records for regulated clinical investigations or other regulated research. NOTE: Control is often used as a casual synonym for the terms in 21 CFR 312.62 requiring investigative sites to prepare, maintain, and retain adequate and accurate case histories. [After 1. 21 CFR 11; 2. CSUCT] See also record.","Control of Electronic Records","Glossary CT 2025-09-26"
"C142703","C67497",,"CDISC Glossary","control",,"A comparator against which the study treatment is evaluated [e.g., concurrent (placebo, no treatment, dose-response, active), and external (historical, published literature, synthetic data)]. [After ICH E10]. See also comparator (product), control group, controlled study, arm (protocol), synthetic data.","Study Control","Glossary CT 2025-09-26"
"C28279","C67497",,"CDISC Glossary","controlled study",,"A study in which a test article is compared with a treatment that has known effects (active control), no treatment, placebo, or dose comparison concurrent control, or external (historic) control. [21 CFR 314.126 and ICH E10]. See also control, comparator (product), control group.","Controlled Study","Glossary CT 2025-09-26"
"C48697","C67497",,"CDISC Glossary","controlled vocabulary","controlled terminology","A finite set of values that represent the only allowed values for a data item. These values may be codes, text, or numeric. See also codelist.","Controlled Vocabulary","Glossary CT 2025-09-26"
"C142465","C67497",,"CDISC Glossary","coordinating committee",,"A committee that a sponsor may organize to coordinate the conduct of a multicenter trial. [ICH E6]","Coordinating Committee","Glossary CT 2025-09-26"
"C51818","C67497",,"CDISC Glossary","coordinating investigator",,"An investigator assigned the responsibility for the coordination of investigators at different centers participating in a multicenter trial. NOTE: Depending on the scope of the trial, coordination could be across centers/sites in a region, across regions, or within a nation. [ICH E6] See also investigator, investigator/institution, principal investigator, site investigator, sponsor-investigator, sub-investigator.","Coordinating Investigator","Glossary CT 2025-09-26"
"C48834","C67497",,"CDISC Glossary","correlation",,"The degree to which two or more variables are related. Typically the linear relationship is measured with either Pearson's correlation or spearman's Rho. NOTE: Correlation does not necessarily mean causation. [After Hyperstat Online Glossary; CDISC ADaM]","Correlation","Glossary CT 2025-09-26"
"C142645","C67497",,"CDISC Glossary","covariate (prognostic)",,"Factor or condition that influences outcome of a trial. [ADaM]","Prognostic Covariate","Glossary CT 2025-09-26"
"C142625","C67497",,"CDISC Glossary","CRF (paper)",,"Case report form in which the data items are linked by the physical properties of paper to particular pages. NOTE: Data are captured manually and any comments, notes, and signatures are also linked to those data items by writing or typescript on the paper pages. See also eCRF, case report form.","Paper Case Report Form","Glossary CT 2025-09-26"
"C142410","C67497",,"CDISC Glossary","CRF data",,"Subset of clinical trial data that are entered into fields on a case report form.","Case Report Form Data","Glossary CT 2025-09-26"
"C156634","C67497",,"CDISC Glossary","criterion validation (COA)","criterion validation (re COA)","Establishing the extent to which the scores of a clinical outcome assessment instrument are related to a known gold standard measure of the same concept. For most COAs clinical outcome assessments (COAs), criterion validity cannot be measured because there is no gold standard. [NIH-FDA BEST (Biomarkers, Endpoints, and other Tools) Resource, https://www.ncbi.nlm.nih.gov/books/NBK338448/] See also validation.","Clinical Outcome Assessment Criterion Validation","Glossary CT 2025-09-26"
"C165825","C67497",,"CDISC Glossary","cross-labeled product",,"An investigational drug, device, or biological product packaged separately that, according to its proposed labeling, is intended for use only with another investigational or approved individually specified drug, device, or biological product where both are required to achieve the intended use, indication, or effect. NOTE: In the case where an approved product is combined with an investigational product, upon approval of the cross-labeled product the label of the previously approved product should be modified to reflect the combination status. [After 21 CFR 3.2 (e) FAQ] See also combination product, single-entity product, co-packaged product.","Cross-labeled Product","Glossary CT 2025-09-26"
"C53310","C67497",,"CDISC Glossary","cross-sectional study",,"A study that measures the prevalence of health outcomes or determinants of health, or both, in a population at a point in time or over a short period. [After British Medical Journal, Epidemiology for the uninitiated, Chapter 8, Fifth Edition, BMJ Book 2004] See also observational study.","Cross-Sectional Study","Glossary CT 2025-09-26"
"C82637","C67497",,"CDISC Glossary","crossover trial",,"A trial design in which subjects function as their own control and are assigned to receive an investigational product(s) and control(s) in an order determined by randomization, with or without a washout period between the interventions. [After ICH E9]","Crossover Study","Glossary CT 2025-09-26"
"C49704","C67497",,"CDISC Glossary","CTCAE (Common Terminology Criterion for Adverse Events)",,"Standard terminology developed and maintained by the National Cancer Institute to report adverse events occurring in cancer clinical trials. The CTCAE contains a grading scale for each adverse event term representing the severity of the event. NOTE: CTCAE is often used in study adverse event summaries and Investigational New Drug (IND) reports to the Food and Drug Administration. [After NCI]","Common Terminology Criteria for Adverse Events","Glossary CT 2025-09-26"
"C70818","C67497",,"CDISC Glossary","CUI (common unique identifier)",,"A code used in the Enterprise Vocabulary System (EVS) to link a particular concept across one or more terms.","Concept Unique Identifier","Glossary CT 2025-09-26"
"C54631","C67497",,"CDISC Glossary","curriculum vitae (CV)",,"Document that outlines a person's educational and professional history.","Curriculum Vitae","Glossary CT 2025-09-26"
"C221448","C67497",,"CDISC Glossary","cybersecurity",,"Protection of computers, servers, mobile devices, electronic systems, networks, programs, and data from malicious attacks, damage, or unauthorized access, to ensure confidentiality, integrity, and availability of information. [After FDA CDRH; After 17 CFR Part 229.106; After Cybersecurity and Infrastructure Security Agency]","Cybersecurity","Glossary CT 2025-09-26"
"C142469","C67497",,"CDISC Glossary","data acquisition",,"Capture of data into a structured, computerized format without a human-to-computer interface (i.e., from another measuring instrument or computerized source). Contrast with data entry, electronic data capture.","Data Acquisition","Glossary CT 2025-09-26"
"C142470","C67497",,"CDISC Glossary","data capture",,"The process of collecting and recording measures and assessments for a specific purpose. NOTE: Data are said to be captured when they are extracted as permanent records for use in a new context or created as a source document in that context. An example would be data that are manually copied or otherwise extracted from an EHR that are then transferred into a clinical trial database to be used for a clinical trial. [After Working with Data, Australian National Data Service, Accessed 4 Sept 2020; AFter FDA Guidance on Use of Electronic Health Record Data in Clinical Investigations Guidance for Industry, July 2018] See also data entry, EDC (electronic data capture).","Data Capture","Glossary CT 2025-09-26"
"C208446","C67497",,"CDISC Glossary","data clarification form",,"A form used to query an investigator and collect feedback to resolve questions regarding data.","Data Clarification Form","Glossary CT 2025-09-26"
"C142471","C67497",,"CDISC Glossary","data clarification",,"Answer supplied by the investigator in response to a query. NOTE: The investigator may supply a new data point value to replace the initial value or a confirmation of the queried data point.","Data Clarification","Glossary CT 2025-09-26"
"C221449","C67497",,"CDISC Glossary","data coding",,"The process of transforming raw data into a structured and manageable format, enabling researchers to identify patterns, themes, and relationships within their data. NOTE: It involves assigning labels or alphanumerical codes to different pieces of information based on predefined criteria or categories, or through the use of coding dictionaries such as MedDRA. These codes act as a bridge between the raw data and the analytical phase of research, facilitating the organization, integration, and interpretation of data. [Dr. Sowndarya Somasundaram, Data Coding in Research Methodology - iLovePhD, October 7, 2023, https://www.ilovephd.com/data-coding-in-research-methodology/, Accessed 2024-08-22] See also data, data management, data entry.","Data Coding","Glossary CT 2025-09-26"
"C142472","C67497",,"CDISC Glossary","data collection instruments",,"Documents or tools which are used to collect, record or transcribe information on substantially identical items from a group of respondents. NOTE: Instruments can be either electronic or paper based tests, questionnaires, inventories, interview schedules or guides, rating scales, and survey plans or any other forms. [After 45 CFR 63.32]","Data Collection Instrument","Glossary CT 2025-09-26"
"C103159","C67497",,"CDISC Glossary","data collection",,"In the context of clinical research, accessing and recording information that provides source data for analysis and interpretation See data entry and data capture. [CDISC]","Data Collection","Glossary CT 2025-09-26"
"C221450","C67497",,"CDISC Glossary","data controller",,"The entity that determines which, and how, personal data are processed. [Article 4 GDPR Definitions] See also personal data, processing (personal data).","Data Controller","Glossary CT 2025-09-26"
"C142474","C67497",,"CDISC Glossary","data element identifier",,"An identifier that may include information such as the origin of the data element, the date and time of entry, or the identification number of the study subject to whom the data element applies. NOTE: Data element identifiers should be attached to each data element as it is entered or transmitted by the originator into the eCRF. [After body and glossary of FDA Final Guidance eSource]","Data Element Identifier","Glossary CT 2025-09-26"
"C41002","C67497",,"CDISC Glossary","data element",,"Smallest unit of information in a transaction. [From body and glossary of FDA Final Guidance on eSource] See also eXtensible markup language (XML) data element, common data element, clinical study data element.","Data Element","Glossary CT 2025-09-26"
"C142475","C67497",,"CDISC Glossary","data encryption standard (DES)",,"A FIPS approved cryptographic algorithm for encrypting (enciphering) and decrypting (deciphering) binary coded information. Encrypting data converts it to an unintelligible form called cipher. Decrypting cipher converts the data back to its original form called plaintext. NOTE: Data that are considered sensitive by the responsible authority or data that represent a high value should be cryptographically protected if vulnerable to unauthorized disclosure or undetected modification during transmission or while in storage. [After Federal Information Processing Standards (FIPS) Publication 46-2]","Data Encryption Standard","Glossary CT 2025-09-26"
"C142379","C67497",,"CDISC Glossary","data entry",,"Human input of data into a structured, computerized format using an interface such as a keyboard, pen-based tablet, or voice recognition. Contrast with data acquisition, electronic data capture, direct entry. See also data collection, data capture.","Data Entry","Glossary CT 2025-09-26"
"C142477","C67497",,"CDISC Glossary","data integrity verification",,"Process of manually supervised verification of data for internal consistency.","Data Integrity Verification","Glossary CT 2025-09-26"
"C142476","C67497",,"CDISC Glossary","data integrity",,"A condition of data reflecting the degree to which the data are complete, consistent, accurate, trustworthy, and reliable at any given time as well as consistently so maintained throughout the data life cycle. NOTE: The data should be collected and maintained in a secure manner, so that they are Attributable, Legible, Contemporaneously recorded, Original (or a true copy) and Accurate (ALCOA). Assuring data integrity requires appropriate quality and risk management systems, including adherence to sound scientific principles and good documentation practices. [After ICH E6; After MHRA GXP Data Integrity Guidance and Defintions, Revision 1, March 2018; After 21 CFR Part 11] See also ALCOA, ALCOA+, ALCOA++, traceability (data), data quality, electronic data transfer.","Data Integrity","Glossary CT 2025-09-26"
"C142478","C67497",,"CDISC Glossary","data interchange",,"Transfer of information between two or more parties, which maintains the integrity of the contents of the data for the purpose intended. See also interoperability.","Data Interchange","Glossary CT 2025-09-26"
"C142479","C67497",,"CDISC Glossary","data item",,"A named component of a data element. Usually the smallest component [ANSI]. See also data model, data element.","Data Item","Glossary CT 2025-09-26"
"C142483","C67497",,"CDISC Glossary","data listing",,"Set of observations organized by domain.","Data Listing","Glossary CT 2025-09-26"
"C142484","C67497",,"CDISC Glossary","data management conventions",,"Procedures and policies for data management (e.g., documented procedure(s) for resolving self-evident changes). [ICH E6] See self-evident change.","Data Management Convention","Glossary CT 2025-09-26"
"C18086","C67497",,"CDISC Glossary","data management",,"Tasks associated with the entry, transfer, and/or preparation of source data and derived items for entry into a clinical trial database. NOTE: Data management could include database creation, data entry, review, coding, data editing, data QC, locking, or archiving; it typically does not include source data capture.","Data Management","Glossary CT 2025-09-26"
"C221451","C67497",,"CDISC Glossary","data minimization","Data Minimisation","The requirement that personal data must be adequate, relevant, and limited to what is necessary in relation to the purposes for which they are collected and processed. [After GDPR Article 5(1)(c); After Article 4(1)(c) of EU Regulation 2018/1725] See also personal data, processing (personal data).","Data Minimization","Glossary CT 2025-09-26"
"C142487","C67497",,"CDISC Glossary","data model",,"Unambiguous, formally stated, expression of items, the relationship among items, and the structure of the data in a certain problem area or context of use. A data model uses symbolic conventions agreed to represent content so that content does not lose its intended meaning when communicated.","Common Data Model","Glossary CT 2025-09-26"
"C142489","C67497",,"CDISC Glossary","data monitoring committee (DMC)","Data and Safety Monitoring Board; DSMB","A group of independent experts who are appointed to monitor the safety and scientific integrity of a research intervention, protect the confidentiality of participant data, and to make recommendations to the sponsor regarding the stopping of the trial for safety, efficacy, or for futility. [After clinicaltrials.gov; Committee for Medicinal Products for Human Use (CHMP), 2005, EMA; FDA Establishment and Operation of Clinical Trial Data Monitoring Committees. March 2006]","Data Monitoring Committee","Glossary CT 2025-09-26"
"C142488","C67497",,"CDISC Glossary","data monitoring",,"Process by which clinical data are examined for completeness, consistency, and accuracy for the duration of the study lifecycle. NOTE: Monitoring is undertaken by qualified study personnel following a specific process and auditable methods. See also ALCOA+","Data Monitoring","Glossary CT 2025-09-26"
"C16493","C67497",,"CDISC Glossary","data origin",,"Source of information collected in the course of a clinical trial, specifically used to differentiate between data as collected versus data that are derived or calculated. NOTE: In CDISC, a metadata attribute defined for each dataset variable in the Define.xml document of an SDTM submission that refers to the source of a variable (e.g., CRF, derived, sponsor defined, PRO, etc.). See also data element originator.","Data Source","Glossary CT 2025-09-26"
"C142490","C67497",,"CDISC Glossary","data originator",,"Metadata characterizing the entity creating a data element in an eCRF for a clinical investigation. NOTE: Per FDA Final Guidance on eSource, ""Each data element is associated with an origination type that identifies the source of its capture in the eCRF. This could be a person, a computer system, a device, or an instrument that is authorized to enter, change, or transmit data elements into the eCRF (also sometimes known as an author)."" See also data element, data element originator, origin. [CDISC, Note is from FDA Final Guidance on eSource]","Data Originator","Glossary CT 2025-09-26"
"C221452","C67497",,"CDISC Glossary","data processor",,"Processes personal data as instructed by a data controller to support the relevant processing activities on a data controller's behalf. [Article 4 GDPR Definitions] See also personal data, processing (personal data).","Data Processor","Glossary CT 2025-09-26"
"C142491","C67497",,"CDISC Glossary","data quality",,"A dimension of data contributing its trustworthiness and pertaining to accuracy, sensitivity, validity, and suitability to purpose. NOTE: Key elements of data quality include attribution, legibility (decipherable, unambiguous), contemporaneousness, originality (i.e., not duplicated), accuracy (ALCOA), precision, completeness, consistency (logical, not out of range), and those who have modified the data. Scientists may reasonably trust data that are accurate (high quality) that have also been reviewed by investigators and protected from unauthorized alteration (high integrity). [After ICH E6; After MHRA GXP Data Integrity Guidance and Defintions, Revision 1, March 2018; After 21 CFR Part 11] See also ALCOA, ALCOA+, ALCOA++, traceability (data), data integrity, electronic data transfer.","Data Quality","Glossary CT 2025-09-26"
"C142492","C67497",,"CDISC Glossary","data security",,"Degree to which data are protected from the risk of accidental or malicious alteration or destruction and from unauthorized access or disclosure. [After US FDA 21 CFR Part 11] See also personal data, processing (personal data).","Data Security","Glossary CT 2025-09-26"
"C142493","C67497",,"CDISC Glossary","data selection criteria",,"The rules by which particular data are selected and/ or transferred between the point of care and the patient record; subsequently, from the patient record to the database; and from database to inclusion in sub-population analyses.","Data Selection Criteria","Glossary CT 2025-09-26"
"C191275","C67497",,"CDISC Glossary","data sharing",,"Providing clinical trial data or access to data and final results to key stakeholders with the goal of increasing scientific knowledge and ultimately better therapies for patients. NOTE: guiding principles for data sharing: (1) maximize the benefits of clinical trials while minimizing the risks or harm of sharing clinical trial data, (2) respect individual participants whose data are shared, (3) increase public trust in clinical trials and the sharing of trial data, and (4) conduct the sharing of clinical trial data in a fair manner. [After National Academies of Sciences, Institute of Medicine. Sharing Clinical Trial Data: Maximizing Benefits, Minimizing Risk. Washington, DC: National Academies Press, 2015, accessed 2022-09-07]","Clinical Data Sharing","Glossary CT 2025-09-26"
"C103180","C67497",,"CDISC Glossary","data standards",,"Defined rules, conventions, guidelines, characteristics, methods, formats, and terminologies that provide structure and consistency for exchange and utilization of data. NOTE: Data standards may describe the elements and relationships necessary to achieve the unambiguous exchange of data between disparate information systems. [After https://www.fda.gov/media/124694/download Standards Development and the Use of Standards in Regulatory Submissions Reviewed in the Center for Biologics Evaluation and Research Guidance for Industry MARCH2019, NCI Thesaurus]. See also interoperability, standard, CDISC standards, Study Data Standardization Plan, and Standards Development Organization.","Data Standard","Glossary CT 2025-09-26"
"C142494","C67497",,"CDISC Glossary","data storage",,"To maintain data by placing the data, or a copy of the data, onto an electronically accessible device for preservation (either in plain-text or encrypted format). [HL7 eHR-s FM Glossary of Terms, 2010].","Data Storage","Glossary CT 2025-09-26"
"C142495","C67497",,"CDISC Glossary","data subject",,"In the context of privacy guidelines, An individual who is the subject of personal data, persons to whom data refers, and from whom data are collected, processed, and stored. [after ISO/TS 2537:2008; and EU GDPR] See also study participant, participant.","Data Subject","Glossary CT 2025-09-26"
"C43582","C67497",,"CDISC Glossary","data transformations",,"Algorithmic operations on data or data sets to achieve a meaningful set of derived data for analysis. [ADaM] See also derived variable.","Data Transformation","Glossary CT 2025-09-26"
"C42645","C67497",,"CDISC Glossary","data type",,"Data types define the structural format of the data carried in the attribute and influence the set of allowable values an attribute may assume. [HL7]","Data Type","Glossary CT 2025-09-26"
"C142500","C67497",,"CDISC Glossary","data validation",,"Process used to determine whether data are accurate, authentic, complete, and/or compliant with applicable standards, rules, and conventions. NOTE: The process may include format checks, completeness checks, check key tests, reasonableness checks, and limit checks. [After FDA.; ISO] See also data integrity, validation.","Data Validation","Glossary CT 2025-09-26"
"C25474","C67497",,"CDISC Glossary","data",,"Representations of facts, concepts, or instructions in a manner suitable for communication, interpretation, or processing by humans or by automated means. [FDA]","Data","Glossary CT 2025-09-26"
"C142503","C67497",,"CDISC Glossary","database lock",,"Action taken to prevent further changes to a clinical trial database or any equivalent clinical data storage system. NOTE: Locking of a database is done after review, query resolution, and a determination has been made that the database is ready for analysis.","Database Lock","Glossary CT 2025-09-26"
"C15426","C67497",,"CDISC Glossary","database",,"A collection of data or information, typically organized for ease and speed of search and retrieval.","Database","Glossary CT 2025-09-26"
"C47824","C67497",,"CDISC Glossary","dataset",,"A collection of structured data in a single file. [CDISC] Compare to analysis dataset, tabulation dataset.","Data Set","Glossary CT 2025-09-26"
"C139171","C67497",,"CDISC Glossary","date of first enrollment",,"Date or date and time of first subject enrollment into a study, as verifiable by a convention that is consistent with authoritative regulatory criteria. [Modified from ICH E3] Compare to study start date.","Date of First Enrollment into Study","Glossary CT 2025-09-26"
"C45970","C67497",,"CDISC Glossary","de-identification",,"The process of removing potentially identifying data or data elements to render data into a form that does not identify individuals and where identification is not likely to take place. NOTE: A general term for a process of removing the association between a set of identifying data and the data subject. Examples of potentially identifying data include name, birth date, social security number, home address, telephone number, e-mail address, medical record numbers, health plan beneficiary numbers, full-face photographic images). [After ISO/TS 25237: 2008 - Health Informatics - Pseudonymization; HIPAA: 45 CFR, 164.514] See also anonymization.","Deidentification","Glossary CT 2025-09-26"
"C142507","C67497",,"CDISC Glossary","de-identified information",,"Records that have had enough personally identifiable information removed or obscured such that the remaining information does not identify an individual, and there is no reasonable basis to believe that the information can be used to identify an individual. [Guide to Protecting Personally Identifiable Information (PII): Special Publication NIST pubs/800-122]","De-identified Information","Glossary CT 2025-09-26"
"C176257","C67497",,"CDISC Glossary","decentralized clinical trial (DCT)",,"A trial in which data capture, administration of medication, and possibly other procedures are done at the subject's location, e.g., at home or by telemedicine, mobile technology, and local HCPs (like family physicians, general practitioners). NOTE: The procedures (entry of data, medical tests, clinical evaluations, objective measures, observations) for capturing safety and efficacy measurements and observations may be done in-person by a traveling clinician or nurse so DCTs are not necessarily virtual. The responsibility for preparation, maintenance and retention of source records may be allocated to a centralized investigator or sponsor investigator. [After CTTI Recommendations: Decentralized Clinical Trials, September 2018] See also remote clinical trial, virtual, visit.","Decentralized Clinical Trial","Glossary CT 2025-09-26"
"C142504","C67497",,"CDISC Glossary","decision rule",,"Succinct statement of how a decision will be reached based upon the expected foreseen clinical benefits in terms of outcomes of the primary endpoint. [FDA documentation]","Decision Rule","Glossary CT 2025-09-26"
"C142505","C67497",,"CDISC Glossary","Declaration of Helsinki",,"A set of recommendations or basic principles that guide medical doctors in the conduct of biomedical research involving human subjects. it was originally adopted by the 18th World Medical assembly (Helsinki, Finland, 1964) and recently revised (64th WMA General Assembly, Fortaleza, Brazil, October 2013).","Declaration of Helsinki","Glossary CT 2025-09-26"
"C176258","C67497",,"CDISC Glossary","deep learning",,"A subset of machine learning that is part of the broader family of machine learning methodologies based on artificial neural networks. A deep neural network has multiple layers between input and output layers to progressively extract higher level features from the raw input. [After DeepAI Machine Learning Glossary and Terms] See also machine learning, artificial intelligence (AI).","Deep Learning","Glossary CT 2025-09-26"
"C142506","C67497",,"CDISC Glossary","Define-XML",,"A table in XML that transmits metadata that describes any tabular dataset structure. NOTE: When used with the CDISC content standards, it provides the metadata for human and animal model tabular datasets such as SDTM, SEND, and ADaM. [After CDISC.org] See also eXtensible markup language (XML) data element, XML (eXtensible Markup Language).","Define.xml","Glossary CT 2025-09-26"
"C142508","C67497",,"CDISC Glossary","demographic data",,"Characteristics of subjects or study populations, which include such information as age, sex, family history of the disease or condition for which they are being treated, and other characteristics relevant to the study in which they are participating.","Demographic Data","Glossary CT 2025-09-26"
"C142509","C67497",,"CDISC Glossary","dependent variable",,"A variable that is expected to change as a result of an experiment. Dependent variables are influenced by independent variables. [After AMA Manual of Style] See also independent variable.","Dependent Variable","Glossary CT 2025-09-26"
"C142538","C67497",,"CDISC Glossary","deployment",,"Readying an electronic clinical trial system for field use by providing or disseminating capture devices, tokens, or passwords for users of an activated system. See activation.","Electronic System Deployment","Glossary CT 2025-09-26"
"C142510","C67497",,"CDISC Glossary","derived variable",,"New variable created as a function of existing variables and/or application of mathematical functions. See also variable, raw data.","Derived Variable","Glossary CT 2025-09-26"
"C142442","C67497",,"CDISC Glossary","design configuration",,"Clinical trial design developed to compare treatment groups in a clinical trial. NOTE: The configuration usually requires randomization to one or more treatment arms, each arm being allocated a different (or no) treatment. examples include: Parallel Group Design, Crossover Design, Factorial Designs. [After ICH E9]","Clinical Trial Design Configuration","Glossary CT 2025-09-26"
"C142443","C67497",,"CDISC Glossary","development plan",,"An ordered program of clinical trials, each with specific objectives. [adapted from ICH E9, see ICH E8]. See also clinical development plan.","Clinical Trial Development Plan","Glossary CT 2025-09-26"
"C15220","C67497",,"CDISC Glossary","diagnose",,"A process to identify the disease, condition, or injury that explains the symptoms and signs occurring in a patient. NOTE: The information required for diagnosis is collected from a history and physical examination of the patient and preferably confirmed by one or more diagnostic procedures such as laboratory tests, radiologic studies and other technical investigations. [After \""Making a diagnosis\"", John P. Langlois, Chapter 10 in Fundamentals of clinical practice (2002). Mark B. Mengel, Warren Lee Holleman, Scott A. Fields. 2nd edition.] See also treatment, intervention, disease, sign, symptom.","Diagnosis Assessment","Glossary CT 2025-09-26"
"C209427","C67497",,"CDISC Glossary","diagnostic device","Diagnostic Medical Device","A class of medical devices intended to provide evidence for diagnosis. [After Regulation (EU) 2017/745; After US FDA, Referencing the Definition of ""Device"" in the Federal Food, Drug, and Cosmetic Act in Guidance, Regulatory Documents, Communications, and Other Public Documents, Nov 14, 2022] See also medical device, investigational device, in vitro diagnostic device.","Diagnostic Device","Glossary CT 2025-09-26"
"C156648","C67497",,"CDISC Glossary","DIBD (development international birth date)",,"The sponsor's first authorization to conduct a clinical trial in any country worldwide. NOTE: Used to start the annual period for the Development Safety Update Report (DSUR). [After CIOMS VII; ICH E2F]","Development International Birth Date","Glossary CT 2025-09-26"
"C80447","C67497",,"CDISC Glossary","digital signature",,"An electronic signature, based on cryptographic methods of originator authentication, computed by using a set of rules and a set of parameters, such that the identity of the signer and the integrity of the data can be verified. [21 CFR 11]","Digital Signature","Glossary CT 2025-09-26"
"C142511","C67497",,"CDISC Glossary","direct access",,"Permission to examine, analyze, verify, and reproduce any records and reports that are important to evaluation of a clinical trial. NOTE: The party (e.g., domestic and foreign regulatory authorities, sponsor's monitors and auditors) with direct access should take all reasonable precautions within the constraints of the applicable regulatory requirement(s) to maintain the confidentiality of subjects' identities and sponsor's proprietary information. [ICH E6 Glossary]","Direct Access","Glossary CT 2025-09-26"
"C142512","C67497",,"CDISC Glossary","direct entry",,"Recording of data by human or automated action where an electronic record is the original means of capturing the data into an electronic records system without a paper source document. Examples are an individual keying original observations into a system or the automatic recording into the system of the output from measuring devices such as a balance that measures subject's body weight or an ECG machine. Compare to data entry, data acquisition.","Direct Data Entry","Glossary CT 2025-09-26"
"C142513","C67497",,"CDISC Glossary","direct identifier",,"A piece of data that can be used to uniquely identify an individual (e.g., name, patient ID, social security number, exact address, telephone number, e-mail address, government issued identifiers, passport/VISA numbers) either without additional information or with cross-linking through other information that is in the public domain. [After PhUSE De-identification Standard for SDTM 3.2, version 1.0.1.]","Direct Identifier","Glossary CT 2025-09-26"
"C142444","C67497",,"CDISC Glossary","discontinuation",,"The act of concluding participation by an enrolled subject prior to completion of all protocol-required elements in a study. NOTE: Four categories of discontinuation are distinguished: a) dropout: Active discontinuation by a subject (also a noun referring to such a discontinued subject); b) investigator initiated discontinuation (e.g., for cause); c) loss to follow-up: cessation of participation without notice or action by the subject; d) sponsor initiated discontinuation. Note that subject discontinuation does not necessarily imply exclusion of subject data from analysis. ""Termination of subject"" has a history of synonymous use, but is now considered nonstandard. [After ICH E3, section 10.1 and FDA Guidance for Industry: Submission of Abbreviated Reports & Synopses in Support of Marketing Applications, IV A] See also withdrawal.","Study Subject Discontinuation","Glossary CT 2025-09-26"
"C142473","C67497",,"CDISC Glossary","discrepancy",,"The failure of a data point to pass a validation check. NOTE: Discrepancies may be detected by computerized edit checks or observed/ identified by the data reviewer as a result of manual data review. See also query.","Data Discrepancy","Glossary CT 2025-09-26"
"C2991","C67497",,"CDISC Glossary","disease",,"Any abnormal condition of the body or mind that causes discomfort, dysfunction, or distress to the affected person. NOTE: The term is often used broadly to include injuries, disabilities, syndromes, symptoms, deviant behaviors, and atypical variations of structure and function. [After NCI Thesaurus] See also diagnosis.","Disease or Disorder","Glossary CT 2025-09-26"
"C17751","C67497",,"CDISC Glossary","disease-free survival",,"The length of time after treatment for a specific disease during which a patient survives with no sign of recurrence of the disease. [NCI]","Disease-Free Survival","Glossary CT 2025-09-26"
"C142571","C67497",,"CDISC Glossary","document (HL7)",,"An ordered presentation of XML elements, possibly including text and tabular analyses, description, and figures. Descriptors for HL7 documents include type, class, and element. NOTE: In HL7, a document can be either physical (referring to the paper) or logical (referring to the content) with the following characteristics: 1) Stewardship; 2) Potential for authentication; 3) Wholeness; 4) Human readability; 5) Persistence; 6) Global vs. local context.","HL7 Document","Glossary CT 2025-09-26"
"C142751","C67497",,"CDISC Glossary","document root",,"The element in an XML document that contains all other elements; the first element in the document. [SPL Glossary]","XML Document Root","Glossary CT 2025-09-26"
"C142515","C67497",,"CDISC Glossary","document type definition (DTD)",,"XML specification for content and presentation of data and text in a document including definitions for the elements considered to be legal in the document. NOTE: Agreeing on a common DTD facilitates interoperability among systems incorporating the agreed standards. [From Electronic Submission File Formats and Specifications. Orientation and Best Practices For Data Formats and Submission to The Center For Tobacco Products. January 2018; Providing Regulatory Submissions in Electronic Format - Certain Human Pharmaceutical Product Applications and Related Submissions Using the eCTD Specifications Guidance for Industry. January 2019]","Document Type Definition","Glossary CT 2025-09-26"
"C19498","C67497",,"CDISC Glossary","documentation",,"All records, in any form (including but not limited to written, electronic, magnetic, and optical records, and scans, x-rays, and electrocardiograms) that describe or record the methods, conduct, and/or results of a trial, the factors affecting a trial, and the actions taken. [ICH E6 Glossary]","Document","Glossary CT 2025-09-26"
"C54076","C67497",,"CDISC Glossary","domain name",,"The way a particular web server is identified on the internet. For example, www.fda.gov names the World Wide Web (www) server for the Food and Drug administration, which is a government (.gov) entity. [Center for advancement of Clinical Research]","Domain Name","Glossary CT 2025-09-26"
"C62289","C67497",,"CDISC Glossary","domain",,"A collection of logically related observations with a common, specific topic that are normally collected for all subjects in a clinical investigation. NOTE: The logic of the relationship may pertain to the scientific subject matter of the data or to its role in the trial. Example domains include laboratory test results (LB), adverse events (AE), concomitant medications (CM). [After SDTM Implementation Guide version 3.2, CDISC.org] See also general observation class.","Domain","Glossary CT 2025-09-26"
"C42636","C67497",,"CDISC Glossary","dosage form","dose form; pharmaceutical form","Physical characteristics of a drug product, (e.g., tablet, capsule, or solution) that contains a drug substance, generally, but not necessarily, in association with one or more other ingredients. [After 21 CFR 314.3; After IDMP] See also drug product.","Pharmaceutical Dosage Form","Glossary CT 2025-09-26"
"C142516","C67497",,"CDISC Glossary","dosage regimen",,"The schedule of doses of an agent per unit of time, including the number of doses per given time period and the elapsed time between doses. NOTE: For example, every six hours or the time that the doses are to be given (for example, at 8 a.m. and 4 p.m. daily); and/or the amount of a medicine (the number of capsules, for example) to be given at each specific dosing time. [After AMA Manual of Style]","Dosage Regimen","Glossary CT 2025-09-26"
"C94394","C67497",,"CDISC Glossary","dosage",,"The amount of drug administered to a patient or test subject over a period of time; a regulated time bound administration of individual doses. NOTE: For example, a daily dosage specified in a prescription or a clinical trial, such as one 100mg tablet taken 4 times per day. [After AMA Manual of style]","Cumulative Dose","Glossary CT 2025-09-26"
"C142517","C67497",,"CDISC Glossary","dose strength",,"The strength of a drug product, which indicates the amount of each active ingredient in a single dose. For liquids, it is the proportion of each active substance to the volume of a liquid dosage form. [After FDA Glossary of Terms]","Dose Strength","Glossary CT 2025-09-26"
"C25488","C67497",,"CDISC Glossary","dose",,"Specified quantity of a medicine, to be taken at one time or at stated intervals. [ISO 11615:2012 Health Informatics]","Dose","Glossary CT 2025-09-26"
"C90475","C67497",,"CDISC Glossary","dose-escalation trial",,"A study in which the dosage of the test article is increased until the desired physiological effect or toxicity is seen. (CDISC; After ICH E4)","Titration Study","Glossary CT 2025-09-26"
"C15228","C67497",,"CDISC Glossary","double-blind study",,"A study in which neither the subject nor the investigator nor the research team interacting with the subject or data during the trial knows the treatment a subject is receiving. [After FDA Glossary of Terms]","Double Blind Study","Glossary CT 2025-09-26"
"C142518","C67497",,"CDISC Glossary","double-dummy",,"A technique for retaining the blind when administering supplies in a clinical trial, when the two treatments cannot be made identical. supplies are prepared for Treatment a (active and indistinguishable placebo) and for Treatment B (active and indistinguishable placebo). subjects then take two sets of treatment; either a (active) and B (placebo), or a (placebo) and B (active). [ICH E9]","Double-Dummy","Glossary CT 2025-09-26"
"C142445","C67497",,"CDISC Glossary","dropout",,"A subject in a clinical trial who for any reason fails to continue in the trial until the last visit or observation required of him/her by the study protocol. [from ICH E9]","Clinical Trial Dropout","Glossary CT 2025-09-26"
"C142519","C67497",,"CDISC Glossary","drug development process",,"The program for advancing an investigational product from preclinical studies through approval for marketing following review by regulatory agencies.","Drug Development Process","Glossary CT 2025-09-26"
"C79370","C67497",,"CDISC Glossary","drug distribution",,"In pharmacokinetics, the processes that control transfer of a drug from the site of measurement to its target and other tissues. See also ADME.","Pharmacokinetics: Distribution","Glossary CT 2025-09-26"
"C54708","C67497",,"CDISC Glossary","drug interaction",,"Changes in a drug's effects due to recent or concurrent use of another drug or drugs (drug-drug interactions), ingestion of food (drug-nutrient interactions), or ingestion of dietary supplements (dietary supplement-drug interactions). [MSD Manual Professional Version. Drug Interactions. By Shalini S. Lynch , PharmD, University of California San Francisco School of Pharmacy. Reviewed/Revised Jul 2022; Modified Sep 2022. Merck & Co, Inc., Rahway, NJ, USA] See also additive effect, synergistic effect, antagonistic effect.","Drug Interaction","Glossary CT 2025-09-26"
"C221818","C67497",,"CDISC Glossary","drug product",,"A finished dosage form, for example, tablet, capsule, solution, etc., that contains an active drug ingredient generally, but not necessarily, in association with inactive ingredients. The term also includes a finished dosage form that does not contain an active ingredient but is intended to be used as a placebo. [21 CFR 210.3] See also medicinal product, dosage form.","Drug Product","Glossary CT 2025-09-26"
"C459","C67497",,"CDISC Glossary","drug treatment","Drug Therapy","A drug given to a patient to mitigate or cure an illness, injury, or reduced health status. See also drug, treatment, intervention.","Medication","Glossary CT 2025-09-26"
"C1909","C67497",,"CDISC Glossary","drug",,"An active natural, synthetic or semi-synthetic ingredient including endogenous body substance that is intended to furnish pharmacological activity or other direct effect in the diagnosis, cure, mitigation, treatment, or prevention of disease or to affect the structure or any function of the human body, but does not include intermediates used in the synthesis of such ingredient [21 CFR 314.3(b)]. See also medicinal product, active substance.","Pharmacologic Substance","Glossary CT 2025-09-26"
"C142520","C67497",,"CDISC Glossary","dynamic HTML",,"Collective term for a combination of tags and options, style sheets, and programming that allows users to create web pages in hypertext Mark-up language (HTML) that are more responsive to user interaction than previous versions of HTML.","Dynamic Hypertext Markup Language","Glossary CT 2025-09-26"
"C54721","C67497",,"CDISC Glossary","Early Phase I",,"Originally described as an exploratory study with no safety or efficacy targets. It is not cited in current FDA guidance and no longer in common usage. See also phase.","Early Phase 1 Trial","Glossary CT 2025-09-26"
"C184387","C67497",,"CDISC Glossary","early termination of trial","premature termination of trial","The premature end of a clinical trial due to any reason before the conditions specified in the protocol are complied with. [REGULATION (EU) No 536/2014 OF THE EUROPEAN PARLIAMENT AND OF THE COUNCIL of 16 April 2014 on clinical trials on medicinal products for human use, and repealing Directive 2001/20/EC; ICH E6] See also termination (of a clinical trial).","Early Termination of Trial","Glossary CT 2025-09-26"
"C142525","C67497",,"CDISC Glossary","eCertified copy",,"A copy of an electronic record that is created through the application of a process validated to preserve the data and metadata of the original and where the validation of the process is certified by the dated signature of an authorized person. [CDISC, after EMA/INS/GCP/454280/2010 GCP Inspectors Working Group (GCP IWG) June 2010]","Electronic Certified Copy","Glossary CT 2025-09-26"
"C142526","C67497",,"CDISC Glossary","eClinical trial","eClinical investigation; eClinical study","Clinical trial in which primarily electronic processes are used to plan, collect (acquire), access, exchange, and archive data required for conduct, management, analysis, and reporting of the trial. NOTE: FDA has recently drawn a distinction between studies and trials. Both words refer to systematic efforts to obtain evidence relevant to regulatory authorities, but, depending on regulatory context and particularly in the case of postmarketing commitments, a study might not be the appropriate word for a clinical trial (prospective, controlled, randomized), but should be reserved instead for surveillance, structured gathering of information, epidemiological studies, or even animal studies [Guidance for industry Postmarketing studies and Clinical Trials-implementation of section 505(o) of the Federal Food, Drug, and Cosmetic act]. See also clinical study, clinical trial.","Electronic Clinical Trial","Glossary CT 2025-09-26"
"C203920","C67497",,"CDISC Glossary","eConsent form","Electronic Consent Form","An electronic document explaining all the relevant information to assist an individual in understanding the expectations and risks in making a decision about a procedure. This document is presented to and signed by the individual or guardian. [NCI] See also informed consent, consent form, electronic signature.","Electronic Consent Form","Glossary CT 2025-09-26"
"C142523","C67497",,"CDISC Glossary","eCRF (electronic case report form)",,"An auditable electronic record of information that is reported to the sponsor (or sponsor's agent such as an EDC provider) on each trial subject to enable data pertaining to a clinical investigation protocol to be systematically captured, reviewed, managed, stored, analyzed, and reported. The eCRF is a CRF in which related data items and their associated comments, notes, and signatures are linked programmatically. See also case report form, CRF, eSRF.[CSUICI; Revised from FDA Final Guidance on eSource]","Electronic Case Report Form","Glossary CT 2025-09-26"
"C142524","C67497",,"CDISC Glossary","eCRT (electronic case report tabulation)",,"Case report tabulation (CRT) provided in electronic format for eSubmissions (electronic regulatory submissions). NOTE: according to FDA guidance, eCRTs are datasets provided as SAS Transport files with accompanying documentation in electronic submissions. They enable reviewers to analyze each dataset for each study. Each CRF domain should be provided as a single dataset; however, additional datasets suitable for reproducing and confirming analyses may also be needed. SDTM is the preferred format.","Electronic Case Report Tabulation","Glossary CT 2025-09-26"
"C142527","C67497",,"CDISC Glossary","EDC (electronic data capture)",,"The process of collecting clinical trial data into a permanent electronic form. NOTE: Permanent in the context of these definitions implies that any changes made to the electronic data are recorded with an audit trail. EDC usually denotes manual entry of CRF data by transcription from source documents. The transcription is typically done by personnel at investigative sites. [After Guidance for Industry, Use of Electronic Health Record Data in Clinical Investigations, July 2018] See also data entry, direct data entry, data acquisition, data capture.","Electronic Data Capture","Glossary CT 2025-09-26"
"C142521","C67497",,"CDISC Glossary","edit check",,"An auditable process, usually automated, of assessing the content of a data field against its expected logical, format, range, or other properties that is intended to reduce error. NOTE: Time-of-entry edit checks are a type of edit check that is run (executed) at the time data are first captured or transcribed to an electronic device at the time entry is completed of each field or group of fields on a form. Back-end edit checks are a type that is run against data that has been entered or captured electronically and has also been received by a centralized data store.","Edit Check","Glossary CT 2025-09-26"
"C156649","C67497",,"CDISC Glossary","EDR (electronic document room)",,"The electronic document room is an extension of the e-Submissions central document room. A check is performed on each submission sent to the EDR for file formats used and the integrity of bookmarks and hypertext links.","Electronic Document Room","Glossary CT 2025-09-26"
"C209463","C67497",,"CDISC Glossary","effect size",,"A measure or estimate of the observed or expected change in an outcome as a result of an intervention. [After AMA Manual of Style]","Effect Size Measurement","Glossary CT 2025-09-26"
"C142522","C67497",,"CDISC Glossary","effectiveness",,"A measure of intended effect on the disease or condition based on regulatory determination made on the basis of clinical efficacy and other substantial evidence, including real-world observations. [After Providing Clinical Evidence of Effectiveness for Human Drug and Biological Products. FDA GUIDANCE DOCUMENT. MAY 1998. After Demonstrating Substantial Evidence of Effectiveness for Human Drug and Biological Products. FDA Guidance for Industry (DRAFT GUIDANCE). December 2019] See also efficacy.","Effectiveness","Glossary CT 2025-09-26"
"C88183","C67497",,"CDISC Glossary","efficacy",,"A measure of intended effect on the disease or condition based on adequate and well-controlled clinical trials. [After Providing Clinical Evidence of Effectiveness for Human Drug and Biological Products. FDA GUIDANCE DOCUMENT. MAY 1998. After Demonstrating Substantial Evidence of Effectiveness for Human Drug and Biological Products. FDA Guidance for Industry (DRAFT GUIDANCE). December 2019] See also effectiveness.","Efficacy","Glossary CT 2025-09-26"
"C142529","C67497",,"CDISC Glossary","EHR (electronic health record)",,"An electronic record for healthcare providers to create, import, store, and use clinical information for patient care, according to nationally recognized interoperability standards. NOTE: The EHR has the following distinguishing features: able to be obtained from multiple sources; shareable; interoperable; accessible to authorized parties. [After National Office of Health Information Technology-HIT, USHHS]","Electronic Health Record","Glossary CT 2025-09-26"
"C209464","C67497",,"CDISC Glossary","electronic data transfer",,"The exchange of data across computer systems and networks, taking into account all required quality aspects such as security, data privacy, data quality, data integrity, and audit trail. [After FDA 21 CFR Part 11; After Guideline on computerized systems and electronic data in clinical trials (europa.eu) EMA/INS/GCP/112288/2023] See also data security, data quality, data integrity, data entry, ALCOA++.","Electronic Data Transfer","Glossary CT 2025-09-26"
"C142530","C67497",,"CDISC Glossary","electronic personal health record (ePHR)",,"An electronic record for individuals to create, import, store, and use clinical information to support their own health.","Electronic Personal Health Record","Glossary CT 2025-09-26"
"C142531","C67497",,"CDISC Glossary","electronic record",,"Any combination of text, graphics, data, audio, pictorial, or other information representation in digital form that is created, modified, maintained, archived, retrieved, or distributed by a computer system. [21 CFR 11.3(b) (6)]","Electronic Record","Glossary CT 2025-09-26"
"C142533","C67497",,"CDISC Glossary","electronic signature","eSignature","A computer data compilation of any symbol or series of symbols, executed, adopted, or authorized by an individual to be the legally binding equivalent of the individual's handwritten signature. [CSUICI; 21 CFR 11.3(7); After US FDA Guidance for Industry, Part 11, Electronic Records; Electronic Signatures - Scope and Application, Aug 2003] See also eConsent form.","Electronic Signature","Glossary CT 2025-09-26"
"C16112","C67497",,"CDISC Glossary","eligibility criteria",,"Requirements that must be met for a person to be included in a study, which help make sure that the results of the study are caused by the intervention being tested and not by other factors. NOTE: Eligibility Criteria, including inclusion and exclusion criteria, should enable constitution of the targeted cohorts in the clinical study. [After NCI's Dictionary of Cancer Terms]","Clinical Trial Eligibility Criteria","Glossary CT 2025-09-26"
"C96966","C67497",,"CDISC Glossary","emergency use authorization","EUA","Approval by FDA for the emergency use of certain unapproved medical products or an unapproved use of an approved medical product for certain emergency circumstances, when applied for under a declared health emergency. These medical products may be referred to as medical countermeasures (MCMs) and may include drugs, biologics, and devices. [After Emergency Use Authorization of Medical Products and Related Authorities. FDA Guidance for Industry and Other Stakeholders. January 2017.] See also pre-approval access.","Emergency Use Authorization","Glossary CT 2025-09-26"
"C45259","C67497",,"CDISC Glossary","EMR (electronic medical record)",,"An electronic record for healthcare providers within one healthcare organization to create, store, and use clinical information for patient care. An electronic record derived from a computerized system used primarily for delivering patient care in a clinical setting. NOTE: EMRs (or EHRs) may serve as source documents, and such data could serve also as source data for clinical trials provided that the controls on the EMR system and the transfer of such data to the eClinical trial system were to fulfill regulatory requirements (e.g., 21 CFR 11). [After Guidance for Industry, Use of Electronic Health Record Data in Clinical Investigations, July 2018]","Electronic Medical Record","Glossary CT 2025-09-26"
"C165826","C67497",,"CDISC Glossary","end-point assessment medicinal product",,"Medicinal products given to the subject as an aid to assess a relevant clinical trial end-point; it is not being tested or used as a reference in the clinical trial. [After Recommendations from the expert group on clinical trials for the implementation of Regulation (EU) No 536/2014' dd 28 June 2017]","End-point Assessment Medicinal Product","Glossary CT 2025-09-26"
"C171503","C67497",,"CDISC Glossary","endemic disease",,"The constant presence of a disease or infectious agent within a given geographic area or population group; may also refer to the usual prevalence of a given disease within such area or group. [A dictionary of epidemiology, edited for the International Epidemiological Association by John M. Last, Oxford University Press 2001]","Endemic Disorder","Glossary CT 2025-09-26"
"C25212","C67497",,"CDISC Glossary","endpoint",,"A defined variable intended to reflect an outcome of interest to address a particular research question. NOTE: A precise definition of an endpoint typically specifies the type of assessments made, the timing of those assessments, the assessment tools used, and possibly other details, as applicable, such as how multiple assessments within an individual are to be combined. Primary endpoints are usually statistically analyzed. [After BEST Resource] See also outcome, variable, surrogate endpoint.","End Point","Glossary CT 2025-09-26"
"C142715","C67497",,"CDISC Glossary","enrolled",,"Status assigned to a subject who agrees to participate in a study, following completion of the informed consent process and meeting eligibility criteria as specified in the protocol. NOTE: Enrollment routinely requires verification of eligibility and inclusion in the analysis database. A less common definition confers enrolled status at the signing of an informed consent form, e.g., Clinicaltrials.gov. See also informed consent, enrollment.","Study Subject Enrolled","Glossary CT 2025-09-26"
"C142466","C67497",,"CDISC Glossary","enrollment (cumulative)",,"Current enrollment including any subjects who were once enrolled and have ended participation.","Cumulative Enrollment","Glossary CT 2025-09-26"
"C142467","C67497",,"CDISC Glossary","enrollment (current)",,"Subjects actively continuing to participate in a clinical trial as of the current date.","Current Enrollment","Glossary CT 2025-09-26"
"C37948","C67497",,"CDISC Glossary","enrollment",,"The action of enrolling one or more subjects. NOTE: The subject will have met the inclusion/exclusion criteria to participate in the trial and will have signed an informed consent form. [After Glossary Of Terms On Clinical Trials For Patient Engagement Advisory Committee Meeting] See also enrolled.","Enrollment","Glossary CT 2025-09-26"
"C171452","C67497",,"CDISC Glossary","epidemic",,"The occurrence in a community or region of cases of an illness, specific health-related behavior, or other health-related events clearly in excess of normal expectancy. NOTE: The community or region and the period in which the cases occur are specified precisely. The number of cases indicating the presence of an epidemic varies according to the agent, size, and type of population exposed; previous experience or lack of exposure to the disease; and time and place of occurrence. [After A dictionary of epidemiology, edited for the International Epidemiological Association by John M. Last, OXFORD UNIVERSITY PRESS 2001]","Epidemic Disorder","Glossary CT 2025-09-26"
"C71738","C67497",,"CDISC Glossary","epoch",,"Planned interval of time in the conduct of a study wherein an activity is specified and consistent, e.g., specific treatment dose or study activity such as Screening. NOTE: A CDISC variable used in the SDTM model to indicate a time period defined in the protocol with a study-specific purpose. See also arm, visit, phase (within a study).","Clinical Trial Epoch","Glossary CT 2025-09-26"
"C137811","C67497",,"CDISC Glossary","ePRO",,"Patient reported outcome data initially captured electronically. NOTE: Usually ePRO data is captured as eSource. [DIA ePRO Working Group]. See also patient reported outcome, PRO, eSource.","Electronic Patient-reported Outcome System","Glossary CT 2025-09-26"
"C142428","C67497",,"CDISC Glossary","equipoise",,"A state in which an investigator is uncertain about which arm of a clinical trial would be therapeutically superior for a patient. NOTE: An investigator who has a treatment preference or finds out that one arm of a comparative trial offers a clinically therapeutic advantage should disclose this information to subjects participating in the trial.","Clinical Equipoise","Glossary CT 2025-09-26"
"C142539","C67497",,"CDISC Glossary","equivalence trial",,"A trial with the primary objective of showing that the response to two or more treatments differs by an amount that is clinically unimportant. NOTE: This is usually demonstrated by showing that the true treatment difference is likely to lie between a lower and an upper equivalence margin of clinically acceptable differences.","Equivalence Trial","Glossary CT 2025-09-26"
"C203921","C67497",,"CDISC Glossary","equivalent effect",,"An effect of two or more bioactive compounds or drugs that is deemed to be equal, and can be expected to have the same clinical effect and safety profile. [After US FDA, Evaluation of Therapeutic Equivalence, Draft Guidance for Industry, July 2022]","Equivalent Effect","Glossary CT 2025-09-26"
"C142534","C67497",,"CDISC Glossary","eSource data",,"Source data captured initially into a permanent electronic record (eSource document) used for the reconstruction and evaluation of a clinical study or a source data item included in an eCRF when direct entry is made. NOTE: permanent in the context of these definitions implies that any changes made to the electronic data are recorded via an audit trail. See also eSource document, source data, permanent data, data originator. [From body of FDA Final Guidance on eSource]","Electronic Source Data","Glossary CT 2025-09-26"
"C142535","C67497",,"CDISC Glossary","eSource document",,"Electronic record containing source data for a clinical trial, used to aggregate a particular instance of eSource data items for capture, transmission, storage, and/ or display, and serving as a source document for a clinical investigation. NOTE: Electronic Source documents are recorded in electronic systems according to conventions (such as those for PDF documents) that ensure that all the fields of eSource data and associated contextual information (e.g. time of capture, time zone, authorship, origin, signatures, revisions, etc.) are linked to each other in a particular structure for presentation. The encoded specifications in the electronic record thus serve the same role as have the physical properties of paper (binding data items together). eSource documents are subject to regulations and guidance that apply to source documents. See also source documents. [relevant to FDA Final Guidance on eSource]","Electronic Source Document","Glossary CT 2025-09-26"
"C142536","C67497",,"CDISC Glossary","eSource",,"Source record that is electronic. See also source, electronic record.","Electronic Source Record","Glossary CT 2025-09-26"
"C142537","C67497",,"CDISC Glossary","eSRF (electronic source report form)",,"The human-readable rendering of an electronic record serving as an eSource document that is part of a case history. The eSRF supports capture, transmission, storage, editing and/ or display of eSource documents (original records and certified copies of original records of clinical findings, observations, or other activities in a clinical investigation) used for reconstructing and evaluating the investigation. NOTE: Intended use distinguishes eCRF and eSRF. The eCRF is for capture, review and editing of protocol data belonging to the sponsor; the eSRF is for the human-readable representation of the eSource document for review or to maintain the eSource document that is part of the case history under 21CFR312.62. See also eCRF, eSource document. [CDISC, relevant to FDA Final Guidance on eSource]","Electronic Source Report Form","Glossary CT 2025-09-26"
"C142540","C67497",,"CDISC Glossary","essential documents",,"Documents that individually and collectively permit evaluation of the conduct of a study and the quality of the data produced. [ICH E6 Glossary]","Essential Trial Document","Glossary CT 2025-09-26"
"C97104","C67497",,"CDISC Glossary","established name",,"The official name of a drug or pharmaceutical product, relevant in US regulations. [US FDA, 21 CFR 299.4] See also proprietary name, generic name, international nonproprietary name (INN), medicinal product name, compendial name.","Established Drug Name","Glossary CT 2025-09-26"
"C188813","C67497",,"CDISC Glossary","estimand",,"A precise description of the treatment effect reflecting the clinical question posed by a given clinical trial objective. It summarizes at a population level what the outcomes would be in the same patients under different treatment conditions being compared. NOTE: The four characteristics of an estimand include the definition of the target study population, statement of the endpoint of interest, intercurrent event details, and the population level summary of the variable of interest. (ICH E9 R1 Addendum; After Estimand Framework: What it is and Why You Need it. Applied Clinical Trials. February 27, 2020]","Estimand","Glossary CT 2025-09-26"
"C142541","C67497",,"CDISC Glossary","ethics committee",,"Group convened to protect research subjects. NOTE: Such bodies, depending on the country or region, are abbreviated as: CCI, CCPPRB, CHR, CPPHS, CRB, EAB, HEX, HSRC, LREC, MREC, NIRB, NRB, and REB. See also institutional review board, independent ethics committee.","Ethics Committee","Glossary CT 2025-09-26"
"C16564","C67497",,"CDISC Glossary","ethnicity",,"Denotes social groups with a shared history, sense of identity, geography, and cultural roots.","Ethnic Group","Glossary CT 2025-09-26"
"C142543","C67497",,"CDISC Glossary","European Medicines Agency (EMA)",,"The regulatory agency for the EU.","European Medicines Agency","Glossary CT 2025-09-26"
"C142546","C67497",,"CDISC Glossary","evaluable (for efficacy and safety)",,"Pertains to data or subjects that meet Statistical Analysis Plan criteria for inclusion in efficacy/safety datasets.","Evaluable for Safety and Efficacy","Glossary CT 2025-09-26"
"C74589","C67497",,"CDISC Glossary","event",,"Planned protocol activities such as randomization and study completion, and occurrences, conditions, or incidents independent of planned study evaluations occurring during the trial (e.g., adverse events) or prior to the trial (e.g., medical history). [After SDTM, www.cdisc.org] See also general observation class, intervention, finding.","Protocol Event","Glossary CT 2025-09-26"
"C25370","C67497",,"CDISC Glossary","exclusion criteria",,"List of characteristics in a protocol, any one of which may exclude a potential subject from participation in a study.","Exclusion Criteria","Glossary CT 2025-09-26"
"C94618","C67497",,"CDISC Glossary","excretion",,"The act or process of eliminating waste products from the body. See also ADME.","Excretion","Glossary CT 2025-09-26"
"C191276","C67497",,"CDISC Glossary","expansion cohort trial",,"A predominantly First-in-Human (FIH) trial with a single protocol with an initial dose-escalation phase followed by three or more additional subject cohorts with cohort-specific objectives. NOTE: The objectives of these expansion cohorts can include assessment of antitumor activity in a disease-specific setting, assessment of a dose with acceptable safety in specific populations (e.g., pediatric or elderly subjects, subjects with organ impairment, subjects with specific tumor types), evaluation of alternative doses or schedules, establishment of dose and schedule for the investigational drug administered with another oncology drug, or evaluation of the predictive value of a potential biomarker. In general, comparison of activity between cohorts is not planned except when a prespecified randomization and analysis plan are part of the protocol design. [FDA Guidance: Expansion Cohorts: Use in First-in-Human Clinical Trials to Expedite Development of Oncology Drugs and Biologics Guidance for Industry. March 2022]","Expansion Cohort Trial","Glossary CT 2025-09-26"
"C41161","C67497",,"CDISC Glossary","experimental intervention","Study Treatment; Target Product; Test Article","The drug, device, therapy, procedure, or process under investigation in a clinical study that is believed to have an effect on outcomes of interest in a study (e.g., health-related quality of life, efficacy, safety, pharmacoeconomics). NOTE: This does not include comparators or placebos. [After https://grants.nih.gov/grants/policy/faq_clinical_trial_definition.htm#5224; https://grants.nih.gov/policy/clinical-trials/protocol-template.htm] See also test articles, devices, drug product, combination product, treatment, diagnosis, investigational medicinal product.","Protocol Agent","Glossary CT 2025-09-26"
"C93388","C67497",,"CDISC Glossary","experimental unit",,"A physical entity which is the primary interest in a specific research objective. NOTE: Depending on the research objectives, a single study may have multiple levels of experimental units. Commonly the individual study subject (animal, person or product) is the experimental unit. (BRIDG v5.3)","Experimental Unit","Glossary CT 2025-09-26"
"C142547","C67497",,"CDISC Glossary","exploratory IND study",,"A clinical study that is conducted early in Phase 1; involves very limited human exposure and has no therapeutic or diagnostic intent (e.g., screening studies, microdose studies) [FDA Guidance for industry, investigators, and Reviewers: exploratory IND studies, January 2006] See also Phase 0.","Exploratory Investigational New Drug Study","Glossary CT 2025-09-26"
"C163559","C67497",,"CDISC Glossary","exploratory objective",,"Additional scientific question(s) within the study that enable further discovery research, beyond the primary and secondary objectives. See also objective, primary objective, secondary objective.","Trial Exploratory Objective","Glossary CT 2025-09-26"
"C39538","C67497",,"CDISC Glossary","exploratory study",,"Phase 1 or 2 study during which the actions of a therapeutic intervention are assessed and measured. NOTE: Procedures in exploratory studies may appropriately be altered beyond the standard adequate and well controlled processes to expand the scope or method of investigation. [NOTE: After FDA eCOA Glossary] Compare to confirmatory study.","Therapeutic Exploratory Study","Glossary CT 2025-09-26"
"C156623","C67497",,"CDISC Glossary","exposure (individual)",,"The result of an intentional contact (e.g., intervention, dosage, drug/product use, misuse, or abuse) or an unintentional contact (circumstantial events leading to unknown, inadvertent, or accidental contact) resulting in inputs to the body of an individual which can occur directly through primary bodily contact routes or indirectly through secondary contact routes (such as via fluids as in fetal exposure during pregnancy or lactation/breast feeding or other biological transfers). [After FDA, Reviewer Guidance Evaluating the Risks of Drug Exposure in Human Pregnancies] See also exposure, intervention, extent of exposure.","Individual Exposure","Glossary CT 2025-09-26"
"C17941","C67497",,"CDISC Glossary","exposure",,"Contact between an agent and a target. A state of contact or close proximity to a medicinal product, chemical, pathogen, radioisotope or other substance. NOTE: Types of exposure may be described by many qualifiers (e.g., local, systemic, acute, chronic, cumulative, environmental, population, individual, gestational, or occupational.) See also exposure (individual), intervention, extent of exposure. [After International Programme on Chemical Safety (IPCS) 2004 WHO]","Exposure","Glossary CT 2025-09-26"
"C142548","C67497",,"CDISC Glossary","eXtensible markup language (XML) data element",,"For XML, an item of data provided in a mark-up mode to allow machine processing. NOTE: The mark-up or tagging facilitates document indexing, search and retrieval, and provides standard conventions for insertion of codes. [After Study Data Technical Conformance Guide, Technical Specifications Document, March 2019] See also XML (eXtensible Markup Language), Define-XML.","Extensible Markup Language Data Element","Glossary CT 2025-09-26"
"C156624","C67497",,"CDISC Glossary","extent of exposure",,"A variable of exposure taking into consideration the strength, dose, duration, frequency, route, and/or timing or gestational stage in utero and other factors. NOTE: Measures of concentrations in biological fluids and tissues may be used to attempt to quantify the extent of exposures (e.g., Cmax, Cmin, Css, AUC in pharmacokinetics or other exposure measurement and assessment models). [After, FDA Guidance for Industry Exposure-Response Relationships] See also exposure, exposure (individual), intervention.","Extent of Exposure","Glossary CT 2025-09-26"
"C142549","C67497",,"CDISC Glossary","extraction transformation load (ETL)",,"A class of software applications for data extraction, transformation, and loading that are used to implement data interfaces between disparate database systems, often to populate data warehouses.","Extraction Transformation Load","Glossary CT 2025-09-26"
"C142557","C67497",,"CDISC Glossary","feels",,"A patient's physical sensation (e.g., symptoms) or perceived mental state. A patient may feel pain, feel feverish, or perceive a severely low mood (as with depression). [FDA Clinical Outcome Assessment (COA) Glossary]","Feels","Glossary CT 2025-09-26"
"C25507","C67497",,"CDISC Glossary","field",,"Locus on a data collection instrument (usually a CRF) for recording or displaying a data element. See data item.","Data Field","Glossary CT 2025-09-26"
"C100047","C67497",,"CDISC Glossary","File Transfer Protocol (FTP)",,"A standard protocol for exchanging files between computers on the internet. See also TCP/IP.","File Transfer Protocol","Glossary CT 2025-09-26"
"C115575","C67497",,"CDISC Glossary","final report",,"A written description of a trial/study of any therapeutic, prophylactic, or diagnostic agent conducted in human subjects, in which the clinical and statistical description, presentations, and analyses are fully integrated into a single report. [ICH E3]","Clinical Trial Final Report","Glossary CT 2025-09-26"
"C3367","C67497",,"CDISC Glossary","finding",,"A meaningful interpretation of data or observations resulting from planned evaluations. Compare to conclusion, hypothesis. See also general observation class, intervention, event.","Finding","Glossary CT 2025-09-26"
"C142558","C67497",,"CDISC Glossary","first subject in - date, time (FSI - date, time)","first patient in - date, time; FPI - date, time","The date and/or date and time the first subject is enrolled into a study. See also enrollment.","First Subject In Date Time","Glossary CT 2025-09-26"
"C142559","C67497",,"CDISC Glossary","first subject in - identity (FSI - identity)","first patient in - identity; FPI - identity","The first subject enrolled. See also enrollment.","First Subject In Identity","Glossary CT 2025-09-26"
"C142560","C67497",,"CDISC Glossary","first subject screened - date, time","first patient screened - date, time","The date and/or date and time the first subject signs the informed consent form and is screened for potential enrollment or randomization into a study, but has not yet been determined to meet the inclusion/exclusion criteria for the trial.","First Subject Screened Date Time","Glossary CT 2025-09-26"
"C142561","C67497",,"CDISC Glossary","first subject screened - identity","first patient screened - identity","The first subject who is so screened.","First Subject Screened Identity","Glossary CT 2025-09-26"
"C142562","C67497",,"CDISC Glossary","first subject treated - date, time","first patient treated - date, time","The date and/or date and time when the first subject receives the test article or placebo in a clinical investigation.","First Subject Treated Date Time","Glossary CT 2025-09-26"
"C142563","C67497",,"CDISC Glossary","first subject treated - identity","first patient treated - identity","The first subject who is so treated.","First Subject Treated Identity","Glossary CT 2025-09-26"
"C142564","C67497",,"CDISC Glossary","first-in-humans study","first-in-man study","The first Phase 1 study in which the test product is administered to human beings.","First-in-Human Study","Glossary CT 2025-09-26"
"C156841","C67497",,"CDISC Glossary","follow-up (clinical study)",,"A period in a clinical study during which selected observations are made, starting after the end of the active part of the study or as specified in the protocol.","Follow-Up Period","Glossary CT 2025-09-26"
"C17237","C67497",,"CDISC Glossary","Food and Drug Administration (FDA)",,"The United States regulatory authority charged with, among other responsibilities, granting IND and NDA approvals.","Food and Drug Administration","Glossary CT 2025-09-26"
"C19464","C67497",,"CDISC Glossary","Form",,"A collection of items and item groups for capturing and displaying clinical trial data.","Form","Glossary CT 2025-09-26"
"C142565","C67497",,"CDISC Glossary","frequentist methods",,"Statistical methods, such as significance tests and confidence intervals, which can be interpreted in terms of the frequency of certain outcomes occurring in hypothetical repeated realizations of the same experimental situation. [ICH E9]","Frequentist Method","Glossary CT 2025-09-26"
"C142502","C67497",,"CDISC Glossary","frozen",,"Status of a database, file, or element that has been presumed to be in its final state pending ""lock"" and where further editing is prevented without ""unfreezing."" NOTE: Freezing and unfreezing are usually formalized in audit trails and differ from ""locking"" and ""unlocking"" only in the degree of approval required. See database lock.","Database Frozen","Glossary CT 2025-09-26"
"C142438","C67497",,"CDISC Glossary","functional roles (in a study)",,"The function or responsibility assumed by a person in the context of a clinical study. Examples include data manager, investigator. [HL7]","Clinical Study Functional Role","Glossary CT 2025-09-26"
"C142468","C67497",,"CDISC Glossary","functions","functioning","The manner in which a patient can perform successfully tasks and roles required for everyday living. A patient's ability to perform specified activities that are a meaningful (to the patient), part of typical (e.g., daily) life. [FDA Clinical Outcome Assessment (COA) Glossary]","Daily Living","Glossary CT 2025-09-26"
"C17357","C67497",,"CDISC Glossary","gender",,"Subject self-identification re: masculine/feminine. [IOM] See also sex. [The NCI Thesaurus contains biomedical terminologies that NCI does not own or control. This concept contains gender-related content that does not comply with Executive Order 14168.]","Gender","Glossary CT 2025-09-26"
"C15238","C67497",,"CDISC Glossary","gene therapy",,"Ex vivo or in vivo gene modification of cells in order to correct or treat an inherited or acquired disease or condition. NOTE: Gene therapy mechanisms can include: Replacing a disease-causing gene with a healthy copy of the gene; Inactivating a disease-causing gene that is not functioning properly; and Introducing a new or modified gene into the body to help treat a disease. [After Natalie Mount, et al. Cell-based therapy technology classifications and translational challenge. Philos Trans R Soc Lond B Biol Sci. 2015 Oct 19; 370(1680): 20150017; After What is Gene Therapy?, US FDA, 07/25/2018] See also cell therapy, regenerative medicine therapy, regenerative medicine advanced therapy, biological product.","Gene Therapy","Glossary CT 2025-09-26"
"C165827","C67497",,"CDISC Glossary","general observation class",,"In the context of the Study Data Tabulation Model (SDTM), a higher level categorization of the subject-level observation domains. NOTE: Most CDISC domains are assigned to one of three general observation classes: 1) The Interventions general observation class is a domain that captures investigational treatments, therapeutic treatments, and surgical procedures that are intentionally administered to the subject (usually for therapeutic purposes) either as specified by the study protocol (e.g., exposure), coincident with the study assessment period (e.g., concomitant medications), or other substances self-administered by the subject (such as alcohol, tobacco, or caffeine). 2) The Events general observation class captures occurrences or incidents independent of planned study evaluations occurring during the trial (e.g., ""adverse events"" or ""disposition"") or prior to the trial (e.g., ""medical history""). 3) The Findings general observation class captures the observations resulting from planned evaluations such as observations made during a physical examination, laboratory tests, ECG testing, and sets of individual questions listed on questionnaires. [Based on SDTM and SDTM Implementation Guide, www.CDISC.org] See also domain, event, intervention, finding. Compare with special purpose domain.","CDISC General Observation Class","Glossary CT 2025-09-26"
"C142429","C67497",,"CDISC Glossary","generalizability",,"The extent to which the findings of a clinical trial can be reliably extrapolated from the subjects who participated in the trial to a broader patient population and a broader range of clinical settings. [ICH E9]","Clinical Generalizability","Glossary CT 2025-09-26"
"C221453","C67497",,"CDISC Glossary","Generative AI (GenAI)",,"Algorithms to organize large, complex data sets into meaningful clusters of information in order to create new content, including text, images and audio, in response to a query or prompt. [George Lawton, ""What is GenAI? Generative AI explained"", Informa, Mar 13, 2025, https://www.techtarget.com/searchenterpriseai/definition/generative-AI] See also AI prompt, Large Language Model (LLM).","Generative Artificial Intelligence","Glossary CT 2025-09-26"
"C97054","C67497",,"CDISC Glossary","generic name","Nonproprietary Name","The name of a drug based on its chemical and molecular structure. NOTE: In the United States of America, this is assigned by the United States Adopted Names (USAN) council. [After Merck Manual, Consumer Version, 2023] See also proprietary name, international nonproprietary name (INN), established name, medicinal product name, compendial name.","Generic Name","Glossary CT 2025-09-26"
"C142566","C67497",,"CDISC Glossary","global assessment variable",,"A single variable, usually a scale of ordered categorical ratings, which integrates objective variables and the investigator's overall impression about the state or change in state of a subject. [ICH E9]","Global Assessment Variable","Glossary CT 2025-09-26"
"C18232","C67497",,"CDISC Glossary","glossary",,"A collection of specialized words or terms with their meanings.","Glossary","Glossary CT 2025-09-26"
"C94236","C67497",,"CDISC Glossary","Good Clinical Practice (GCP)","GCRP; good clinical research practice","A standard for the design, conduct, performance, monitoring, auditing, recording, analyses, and reporting of clinical trials that provides assurance that the data and reported results are credible and accurate and that the rights, integrity, and confidentiality of trial subjects are protected. NOTE: For Guidance on Good Clinical Practice see COMP/ICH/135/95; Declaration of Helsinki; 21 CFR 50, 21 CFR 54, 21 CFR 56, and 21 CFR 312. [ICH]","Good Clinical Practice","Glossary CT 2025-09-26"
"C142567","C67497",,"CDISC Glossary","granularity",,"Refers to the size of an information unit in relation to a whole. NOTE: Structuring ""privileges"" in electronic systems is said to be highly granular when each of many roles can differ in their capacity to act on electronic records.","Granularity","Glossary CT 2025-09-26"
"C142568","C67497",,"CDISC Glossary","group sequential design",,"A type of adaptive trial design that allows successive, unscheduled interim analyses of the data at particular time points or after a pre-defined number of patients have been enrolled. NOTE: This kind of trial design is chosen to allow for spontaneous interim analyses, in order to, for example, determine whether to stop the trial, adjust the sample size, adjust the dose, or otherwise amend the protocol. [After https://toolbox.eupati.eu/glossary/group-sequential-design/;  https://www.statisticshowto.com/group-sequential-design/; https://toolkit.ncats.nih.gov/glossary/group-sequential-trial/] See also interim analysis(es), adaptive design, Bayesian statistics, Bayesian approaches.","Group Sequential Design","Glossary CT 2025-09-26"
"C142569","C67497",,"CDISC Glossary","handwritten signature",,"The scripted name or legal mark of an individual handwritten by that individual and executed or adopted with the present intention to authenticate a writing in a permanent form. NOTE: The act of signing with a writing or marking instrument such as a pen or stylus is preserved. [21CFR 11]","Handwritten Signature","Glossary CT 2025-09-26"
"C142542","C67497",,"CDISC Glossary","harmonized standard",,"A European Norm (EN) that has been accepted by all Member States and has been published in the Official Journal of the European Communities (OJEC).","European Harmonized Standard","Glossary CT 2025-09-26"
"C93150","C67497",,"CDISC Glossary","hazard ratio",,"A complex statistical analysis that compares the risk of harm in one group to another. NOTE: Calculated from the Cox Proportional Hazard model. [After AMA Manual of Style; After NCI Thesaurus] See also relative risk.","Hazard Ratio","Glossary CT 2025-09-26"
"C80485","C67497",,"CDISC Glossary","Health Level 7 (HL7)",,"An ANSI-accredited Standards Developing Organization (SDO) operating in the healthcare arena. NOTE: Level 7 refers to the highest level of the International Standards Organization's (ISO) communications model for Open Systems Interconnection (OSI), the application level. The application level addresses definition of the data to be exchanged, the timing of the interchange, and the communication of certain errors to the application. Level 7 supports such functions as security checks, participant identification, availability checks, exchange mechanism negotiations, and, most importantly, data exchange structuring.","Health Level Seven","Glossary CT 2025-09-26"
"C176259","C67497",,"CDISC Glossary","health literacy",,"The degree to which an individual has the capacity to obtain, communicate, process, and understand basic health information and services to make health decisions. [After The Patient Protection and Affordable Care Act of 2010, Title V; After What is Health Literacy? Oct 23, 2019]. See also plain language writing.","Health Literacy","Glossary CT 2025-09-26"
"C142570","C67497",,"CDISC Glossary","health-related quality of life (HRQoL)",,"A multi-domain concept that represents the patient's general perception of the effect of illness and treatment on physical, psychological, and social aspects of life. NOTE: Claiming a statistical and meaningful improvement in HRQoL implies: (1) that all HRQoL domains that are important to interpreting change in how the clinical trial's population feels or functions as a result of the targeted disease and its treatment were measured; (2) that a general improvement was demonstrated; and (3) that no decrement was demonstrated in any domain. [FDA Clinical Outcome Assessment (COA) Glossary] Compare to quality of life (QoL).","Health-related Quality of Life","Glossary CT 2025-09-26"
"C21541","C67497",,"CDISC Glossary","healthcare facility",,"Any public or private entity or agency or medical or dental facility where healthcare services are provided or clinical trials are conducted. [After ICH E6; CIOMS Glossary of ICH terms and definitions]","Healthcare Facility","Glossary CT 2025-09-26"
"C16666","C67497",,"CDISC Glossary","healthcare provider",,"A person licensed, certified, or otherwise authorized or permitted by law to administer healthcare in the ordinary course of business or practice of a profession, including a healthcare facility. [HL7]","Health Care Provider","Glossary CT 2025-09-26"
"C49651","C67497",,"CDISC Glossary","healthy volunteer",,"A person with no significant health-related issues who agrees to participate as a subject in a clinical study. NOTE: This is often a healthy person in a Phase 1 trial. See also Phase 1. [After Patient Recruitment Healthy Volunteer, NIH Clinical Center, 05/18/2022, Webpage accessed 2023-03-30]","Healthy Subject","Glossary CT 2025-09-26"
"C27998","C67497",,"CDISC Glossary","hereditary",,"Transmitted from parent to child by genetic transmission. [After NCI]","Hereditary","Glossary CT 2025-09-26"
"C156650","C67497",,"CDISC Glossary","HIE (Health Information Exchange)",,"The mobilization of healthcare information electronically across organizations within a region or community. HIE provides the capability to electronically move clinical information between disparate healthcare information systems, while maintaining the meaning of the information being exchanged. The goal of HIE is to facilitate access to, and retrieval of, clinical data to provide safer, more timely, efficient, effective, equitable, and patient-centered care. [HITSP]","Health Information Exchange","Glossary CT 2025-09-26"
"C70665","C67497",,"CDISC Glossary","human subject","subject/trial subject","Individual who is or becomes a participant in research, either as a recipient of the test article or as a control. A subject may be either a healthy human or a patient. [21 CFR 50.3].  See also clinical research subject.","Human Study Subject","Glossary CT 2025-09-26"
"C142572","C67497",,"CDISC Glossary","Huriet Law",,"France's regulations covering the initiation and conduct of clinical trials.","Huriet Law","Glossary CT 2025-09-26"
"C142380","C67497",,"CDISC Glossary","HyperText Markup Language (HTML)",,"A specification of the W3C that provides markup of documents for display in a web browser. [HL7] Contrast to XML.","Hypertext Markup Language","Glossary CT 2025-09-26"
"C142573","C67497",,"CDISC Glossary","hypertext",,"Links in a document that permit browsers to jump immediately to another document. NOTE: In most browsers links are displayed as colored, underlined text.","Hypertext","Glossary CT 2025-09-26"
"C142574","C67497",,"CDISC Glossary","hypothesis to test",,"In a trial, a statement relating to the possible different effect of the interventions on an outcome. The null hypothesis of no such effect is amenable to explicit statistical evaluation by a hypothesis test, which generates a P value. [CONSORT Statement]","Hypothesis To Test","Glossary CT 2025-09-26"
"C171511","C67497",,"CDISC Glossary","immediately life-threatening disease or condition",,"A stage of disease in which there is reasonable likelihood that death will occur within a matter of months, or in which premature death is likely without early treatment. [21 CFR 312.300]","Immediately Life-Threatening Disorder","Glossary CT 2025-09-26"
"C12735","C67497",,"CDISC Glossary","immune system",,"A complex network of cells, chemicals, tissues, and organs that defends the body from infection and disease. NOTE: Bone marrow, thymus, lymphatic system, lymph nodes, spleen, and mucous membranes can be involved. [After NCI Thesaurus] See also antigen, antibody, autoimmunity.","Immune System","Glossary CT 2025-09-26"
"C142577","C67497",,"CDISC Glossary","impartial witness",,"A person who is independent of the trial, who cannot be unfairly influenced by people involved with the trial, who attends the informed consent process if the subject or the subject's legally acceptable representative cannot read, and who reads the informed consent form and any other written information supplied to the subject. [ICH]","Impartial Witness","Glossary CT 2025-09-26"
"C209465","C67497",,"CDISC Glossary","in vitro diagnostic device","Companion Diagnostic","A reagent, reagent product, calibrator, control material, kit, instrument, apparatus, piece of equipment, software or system, whether used alone or in combination, intended by the manufacturer to be used in vitro for the examination of specimens, including blood and tissue donations, derived from the human body, solely or principally for the purpose of providing information to aid towards a diagnosis. (After Regulation (EU) 2017/746; After US FDA 21 CFR 809.3)","In Vitro Diagnostic Device","Glossary CT 2025-09-26"
"C53348","C67497",,"CDISC Glossary","incidence rate",,"A proportion calculated as the number of individuals who develop the disease during a period of time divided by the number of persons at risk. [After AMA Style Guide, 10th Edition; After Principles of Epidemiology in Public Health Practice, Third Edition. An Introduction to Applied Epidemiology and Biostatistics, Lesson 3: Measures of Risk, CDC 2012] See also morbidity rate, morbidity, mortality, incidence, prevalence.","Incidence Rate","Glossary CT 2025-09-26"
"C16726","C67497",,"CDISC Glossary","incidence",,"The occurrence of new cases of disease, injury, or disability in a defined population over a specified period of time. NOTE: Incidence is most often expressed relative to the total population at risk (i.e., per unit of population). [After Basic Epidemiology, R. Bonita and others, WHO 2006; After Principles of Epidemiology in Public Health Practice, Third Edition. An Introduction to Applied Epidemiology and Biostatistics, Lesson 3: Measures of Risk, CDC 2012] Compare to prevalence. See also morbidity rate, morbidity, mortality, incidence rate.","Incidence","Glossary CT 2025-09-26"
"C25532","C67497",,"CDISC Glossary","inclusion criteria",,"The criteria in a protocol that prospective subjects must meet to be eligible for participation in a study. NOTE: Exclusion and inclusion criteria define the study population. See also exclusion criteria.","Inclusion Criteria","Glossary CT 2025-09-26"
"C142578","C67497",,"CDISC Glossary","independent data monitoring committee (IDMC)",,"A committee established by the sponsor to assess at intervals the progress of a clinical trial, safety data, and critical efficacy variables and recommend to the sponsor whether to continue, modify, or terminate the trial. [ICH E9] See also data monitoring committee.","Independent Data Monitoring Committee","Glossary CT 2025-09-26"
"C142579","C67497",,"CDISC Glossary","independent ethics committee (IEC)",,"An independent body (a review board or a committee, institutional, regional, national, or supranational) constituted of medical/scientific professionals and non-scientific members, whose responsibility it is to ensure the protection of the rights, safety, and well-being of human subjects involved in a trial and to provide public assurance of that protection by, among other things, reviewing and approving/providing favorable opinion on the trial protocol, the suitability of the investigator(s), facilities, and the methods and material to be used in obtaining and documenting informed consent of the trial subjects. NOTE: The legal status, composition, function, operations, and regulatory requirements pertaining to independent ethics committees may differ among countries but should allow the independent ethics committee to act in agreement with GCP as described in the ICH guideline. [After ICH E6 R2 Glossary] See also institutional review board, ethics committee.","Independent Ethics Committee","Glossary CT 2025-09-26"
"C191277","C67497",,"CDISC Glossary","independent variable",,"A variable that is not affected by other variables that the study is trying to understand. Independent variables influence dependent variables. [After AMA Manual of Style] See also dependent variable.","Independent Variable","Glossary CT 2025-09-26"
"C41184","C67497",,"CDISC Glossary","indication",,"The target disease or condition, or its manifestations or symptoms, for which the treatment, prevention, mitigation, cure, or diagnosis is studied or approved. NOTE: In the context of product labeling, the disease indication is usually associated with a population of interest. [After 21 CFR 201.57(c)(2); Wording of therapeutic indication. A Guide for Assessors of Centralised Applications. 21 October 2019, EMA/CHMP/483022/2019. Committee for Medicinal Products for Human Use (CHMP)]","Indication","Glossary CT 2025-09-26"
"C142581","C67497",,"CDISC Glossary","indirect identifier","quasi identifer","Data which in connection with other information can be used to identify an individual with high probability, e.g., age at baseline, race, sex, events, specific findings, etc. NOTE: Two levels of indirect identifier are distinguished. Level 1 - not likely to change over time, is visible, and is available in other sources. Typically it is demographic data such as sex, age at a particular date, country, body mass index (BMI). Level 2 - longitudinal information that is likely to change such as measurements, events, age. See also quasi identifier. [PhUSE De-identification Standard for SDTM 3.2, version 1.0.1.]","Indirect Identifier","Glossary CT 2025-09-26"
"C16735","C67497",,"CDISC Glossary","informed consent",,"A process that provides the subject with explanations that will help in making decisions about whether to begin or continue participating in a study, after having achieved an understanding of the potential risks and benefits. NOTE: Informed consent is an ongoing, interactive process rather than a one-time information session and can use digital methodologies. Under 21 CFR 50.20, no informed consent form may include any ""language through which the subject or the representative is made to waive or appear to waive any of the subject's legal rights, or releases or appears to release the investigator, the sponsor, the institution, or its agents from liability for negligence."" In some cases, when the prospective subject is unable to provide legal consent, permission to participate may be obtained from a legally-authorized representative. [US FDA 21 CFR 50.20; After US FDA Use of Electronic Informed Consent Questions and Answers Guidance for Institutional Review Boards, Investigators, and Sponsors, Dec 2016] See also consent form, eConsent form.","Informed Consent","Glossary CT 2025-09-26"
"C15388","C67497",,"CDISC Glossary","infusion",,"Any form of treatment that is introduced into the body slowly by constant administration or drip via a blood vessel, a muscle, or the spinal cord. [After EDQM Standard Terms controlled vocabularies for pharmaceutical dose forms Version 1.2.0 2019. Internal controlled vocabularies for pharmaceutical dose forms. Version 1.2.0 - 28 January 2019.] See also administration (substance).","Infusion Procedure","Glossary CT 2025-09-26"
"C202575","C67497",,"CDISC Glossary","ingredient",,"Active and/or inactive material used in pharmaceutical product. [After ISO 11615:2017, 3.1.28]","Pharmaceutical Product Ingredient","Glossary CT 2025-09-26"
"C142448","C67497",,"CDISC Glossary","inspection",,"The act by a regulatory authority(ies) of conducting an official review of documents, facilities, records, and any other resources that are deemed by the authority(ies) to be related to the clinical trial and that may be located at the site of the trial, at the sponsor's and/or contract research organization's (CRO's) facilities, or at other establishments deemed appropriate by the regulatory authority(ies). [ICH] See also audit.","Clinical Trial Inspection","Glossary CT 2025-09-26"
"C16741","C67497",,"CDISC Glossary","institutional review board (IRB)","committee for the protection of human subjects; independent ethics committee; independent review board","An independent body constituted of medical, scientific, and non-scientific members, whose responsibility it is to ensure the protection of the rights, safety, and well-being of human subjects involved in a study by, among other things, reviewing, approving, and providing continuing review of study protocol and of the methods and material to be used in obtaining and documenting informed consent of the study subjects. [ICH E6 1.31]","Institutional Review Board","Glossary CT 2025-09-26"
"C142631","C67497",,"CDISC Glossary","instrument",,"A means to capture data (e.g., questionnaire, diary) plus all the information and documentation that supports its use. NOTE: Generally, instruments include clearly defined methods and instructions for administration or responding, a standard format for data collection, and well-documented methods for scoring, analysis, and interpretation of results. [from PRO Draft Guidance] Compare to questionnaire, survey (see Comments on Draft PRO Guidance, April 4, 2006, by ISOQOL, p. 8).","Patient-Reported Survey Instrument","Glossary CT 2025-09-26"
"C54390","C67497",,"CDISC Glossary","intended use",,"The specific clinical circumstance or purpose for which a medical product or test is being developed. NOTE: In the regulatory context, this term refers to the ""Statement of Intended Use"" prepared by the persons legally responsible for the labeling of medical products. [after NIH-FDA BEST (Biomarkers, Endpoints, and other Tools) Resource, https://www.ncbi.nlm.nih.gov/books/NBK338448/]","Medical Product or Procedure Intent of Use","Glossary CT 2025-09-26"
"C54398","C67497",,"CDISC Glossary","intention-to-treat",,"The principle that asserts that the effect of a treatment policy can be best assessed by evaluating the basis of the intention to treat a subject (i.e., the planned treatment regimen) rather than the actual treatment given. NOTE: This has the consequence that subjects allocated to a treatment group should be followed up, assessed, and analyzed as members of that group irrespective of their compliance with the planned course of treatment. The principle is intended to prevent bias caused by loss of participants that may reflect non-adherence to the protocol and disrupt baseline equivalence established by random assignment. [ICH E9; after CONSORT statement]","Intent To Treat","Glossary CT 2025-09-26"
"C78688","C67497",,"CDISC Glossary","inter-rater reliability",,"The property of scales yielding equivalent results when used by different raters on different occasions. [ICH E9]","Inter-rater Reliability","Glossary CT 2025-09-26"
"C188815","C67497",,"CDISC Glossary","intercurrent event",,"An event(s) occurring after treatment initiation that affects either the interpretation or the existence of the measurements associated with the clinical question of interest. [ICH E9 Addendum on Estimands]","Intercurrent Event","Glossary CT 2025-09-26"
"C142583","C67497",,"CDISC Glossary","interim analysis schedule",,"The time/information points at which interim analyses are planned.","Interim Analysis Schedule","Glossary CT 2025-09-26"
"C142582","C67497",,"CDISC Glossary","interim analysis(es)",,"Analysis comparing intervention groups at any time before the formal completion of the trial, usually before recruitment is complete. [CONSORT statement]","Interim Analysis","Glossary CT 2025-09-26"
"C115555","C67497",,"CDISC Glossary","interim clinical trial/study report",,"A report of intermediate results and their evaluation based on planned analyses performed during the course of a trial. [ICH]","Clinical Trial Interim Analysis Output Documentation","Glossary CT 2025-09-26"
"C78687","C67497",,"CDISC Glossary","internal consistency",,"Pertaining to data that do not include contradictions.","Internal Consistency","Glossary CT 2025-09-26"
"C142584","C67497",,"CDISC Glossary","international birth date (IBD)",,"The date of the first marketing authorization for a new product granted to any company in any country in the world. NOTE: Used for Periodic Safety Update Report (PSUR). [After ICH E2C(R2), Appendix A]","International Marketing Authorization Birth Date","Glossary CT 2025-09-26"
"C142585","C67497",,"CDISC Glossary","international nonproprietary name (INN)",,"Unique name for a drug substance (pharmaceutical ingredient) that is globally recognized and public property. NOTE: The INN name is established by the World Health Organization (WHO). [After WHO, Health products policy and standards, INN and medicines classification] See also proprietary name, generic name, established name, medicinal product name, compendial name, active substance.","International Nonproprietary Name","Glossary CT 2025-09-26"
"C142586","C67497",,"CDISC Glossary","internet service provider (ISP)",,"A company that provides access to the internet for individuals and organizations.","Internet Service Provider","Glossary CT 2025-09-26"
"C20342","C67497",,"CDISC Glossary","internet",,"A global system of computer networks that provides the common TCP IP infrastructure for e-mail, the World Wide Web, and other online activities.","Internet","Glossary CT 2025-09-26"
"C142381","C67497",,"CDISC Glossary","interoperability",,"Ability of two or more systems or components to exchange information and to use the information that has been exchanged. [IEEE Standard Computer Dictionary]. See also syntactic, semantic, semantic interoperability.","Interoperability","Glossary CT 2025-09-26"
"C25218","C67497",,"CDISC Glossary","intervention",,"An activity that produces an effect, or that is intended to alter the course of a disease in a patient or population. This is a general term that encompasses the medical, social, behavioral, and environmental acts that can have preventive, therapeutic, or palliative effects. (NCI) See also investigational product, experimental intervention, vaccine, medical device, diagnostic device.","Clinical Intervention or Procedure","Glossary CT 2025-09-26"
"C82667","C67497",,"CDISC Glossary","Investigational Device Exemption (IDE)",,"An application to FDA for a waiver to test a device in a clinical trial. [After US FDA, 21 CFR Part 812]","Investigational Device Exemption","Glossary CT 2025-09-26"
"C72968","C67497",,"CDISC Glossary","investigational device",,"A device that is assessed in a clinical investigation. [REGULATION (EU) 2017/745 OF THE EUROPEAN PARLIAMENT AND OF THE COUNCIL of 5 April 2017 on medical devices] See also investigational product, medical device.","Investigational Medical Device","Glossary CT 2025-09-26"
"C202579","C67497",,"CDISC Glossary","investigational medicinal product","Investigational Product","A pharmaceutical form of an active ingredient being tested or used as a reference in a clinical trial, including a product with a marketing authorization when used or assembled (formulated or packaged) in a way different from the approved form, or when used for an unapproved indication, or when used to gain further information about an approved use. Reference products and placebos are also considered investigational medicinal products in a clinical trial. [After E6(R2) Good Clinical Practice (GCP) -- Step 4 (final), 9 November 2016 -- Glossary] See also authorised investigational medicinal product, experimental intervention.","Investigational Medicinal Product","Glossary CT 2025-09-26"
"C96090","C67497",,"CDISC Glossary","Investigational New Drug (IND) application","IND Application","An application to FDA for a waiver to allow the administration of investigational products in a clinical trial. [After US FDA, 21 CFR Part 312]","Investigational New Drug Application","Glossary CT 2025-09-26"
"C218675","C67497",,"CDISC Glossary","investigational product code",,"A symbol or combination of symbols (usually alphanumeric characters) that are assigned by the sponsor to uniquely identify an experimental intervention. [After ICH M11]","Sponsor's Investigational Product Code","Glossary CT 2025-09-26"
"C25936","C67497",,"CDISC Glossary","investigator",,"A person responsible for the conduct of the study, ensuring adherence to the protocol and good clinical practices. NOTE: For example, under whose immediate direction the test article is administered or dispensed to, or used involving a subject. [21 CFR 50.3, ICH E6] See also sponsor-investigator, site investigator, principal investigator, coordinating investigator, sub-investigator.","Investigator","Glossary CT 2025-09-26"
"C79303","C67497",,"CDISC Glossary","investigator's brochure",,"A compilation of the clinical and non-clinical data on the investigational product(s) that is relevant to the study of the investigational product(s) in human subjects.","Investigational Brochure","Glossary CT 2025-09-26"
"C142591","C67497",,"CDISC Glossary","investigator/institution",,"An expression meaning ""the investigator and/or institution, where required by the applicable regulatory requirements"" with respect to the transfer or assignment of responsibilities. [After ICH E6 1.35] See also coordinating investigator, investigator, principal investigator, site investigator, sponsor-investigator, sub-investigator.","Investigator/Institution","Glossary CT 2025-09-26"
"C142629","C67497",,"CDISC Glossary","item (PRO)",,"An individual question, statement, or task (and its standardized response options) that is evaluated by the patient to address a particular concept. [FDA Clinical Outcome Assessment (COA) Glossary] See also item generation, response option.","Patient-reported Outcome Item","Glossary CT 2025-09-26"
"C142592","C67497",,"CDISC Glossary","item definition",,"Formal specification of the properties of an item or field of data in an eClinical trial. [CDISC ODM, CDISC CDASH]","Item Definition","Glossary CT 2025-09-26"
"C142630","C67497",,"CDISC Glossary","item generation",,"Establishing the content to be covered by the items in a PRO instrument, including generating item wording, evaluating the completeness of item coverage of the concepts of interest, and performing initial assessment of clarity and readability. NOTE: PRO instrument item generation is potentially incomplete without patient involvement. [from ISOQOL comments on PRO Draft Guidance]","Patient-Reported Outcome Item Generation","Glossary CT 2025-09-26"
"C142593","C67497",,"CDISC Glossary","item group definition",,"The specification in an eClinical trial of a collection of items often clinically related to each other and useful to consider as an ensemble. NOTE: Item groups are likely to have greater granularity in analysis datasets using SDTM which can, for example, distinguish between different therapy types: study therapy, prior therapy, concomitant therapy, protocol forbidden therapies, rescue therapies. [ODM]","Item Group Definition","Glossary CT 2025-09-26"
"C142431","C67497",,"CDISC Glossary","item",,"A representation of a clinical variable, fact, concept, or instruction in a manner suitable for communication, interpretation, or processing by humans or by automated means. NOTE: Items are collected together to form item groups. [CDISC] Compare to data item, item (PRO).","Clinical Item","Glossary CT 2025-09-26"
"C142594","C67497",,"CDISC Glossary","Janus conceptual model",,"A logical design for a data warehouse intended to integrate submission data, protocol descriptions, and analysis plans from clinical and animal studies into an FDA review environment that uses a set of validated, standards-based tools to allow reproducible cross-study, data mining, and retrospective comparative analysis. [FDA Study Data Standards]","Janus Clinical Trials Repository Model","Glossary CT 2025-09-26"
"C142595","C67497",,"CDISC Glossary","Janus study data repository",,"The Janus is a data repository for subject-level clinical and nonclinical study data submitted to FDA as part of a regulatory submission. NOTE: Sometimes written as JANUS, the term is not an acronym. [FDA Study Data Standards]","Janus Study Data Repository","Glossary CT 2025-09-26"
"C41203","C67497",,"CDISC Glossary","label","package insert, patient package leaflet","Description of a drug product/ device that includes: the indication, who should use it, adverse events, instructions for use, and safety information. NOTE: Labels must be approved by regulatory authorities. [FDA; SPL]","Medical Product Label","Glossary CT 2025-09-26"
"C54694","C67497",,"CDISC Glossary","labeling (content of)",,"All text, tables, and figures in labeling as described in regulations for a specific product (e.g., 21 CFR 201.56 and 201.57 for human prescription drugs; 201.66 for human over-the-counter drugs; 21 CFR 801 for medical devices; and 21 CFR 606.122 for blood products). See also structured product label.","Labeling","Glossary CT 2025-09-26"
"C142432","C67497",,"CDISC Glossary","laboratory (clinical)",,"A laboratory providing analyses of samples collected in clinical care or research.","Clinical Laboratory","Glossary CT 2025-09-26"
"C221454","C67497",,"CDISC Glossary","Large Language Model (LLM)",,"A type of AI model trained on large text datasets to learn the relationships between words in natural language. NOTE: These models can apply these learned patterns to predict and generate natural language responses to a wide range of inputs or prompts they receive, to conduct tasks like translation, summarization, and question answering. [FDA Digital Health and Artificial Intelligence Glossary - Educational Resource, 09/26/2024] See also AI prompt, generative AI.","Large Language Model","Glossary CT 2025-09-26"
"C142596","C67497",,"CDISC Glossary","last subject in - date, time (LSI - date, time)","last patient in - date, time; LPI - date, time","The date and/or date and time when a last subject to participate in a clinical trial is enrolled.","Last Subject In Date Time","Glossary CT 2025-09-26"
"C142597","C67497",,"CDISC Glossary","last subject in - identity (LSI - identity)","last patient in - identity; LPI - identity","The last subject enrolled in a clinical trial.","Last Subject In Identity","Glossary CT 2025-09-26"
"C142598","C67497",,"CDISC Glossary","last subject last visit - date, time (LSLV - date, time)","last subject out/complete (LSC/LPC or LSO/LPO) - date, time)","The date and/or date and time when a last subject has reached a planned or achieved milestone representing the completion of the trial.","Last Subject Last Visit Date Time","Glossary CT 2025-09-26"
"C142599","C67497",,"CDISC Glossary","last subject last visit - identity (LSLV - identity)","last subject complete - identity; last subject out - identity; LPC-dentity; LPO - identity; LSC - identity; LSO - identity","The last subject to reach a planned or achieved milestone representing the completion of the trial.","Last Subject Last Visit Identity","Glossary CT 2025-09-26"
"C142514","C67497",,"CDISC Glossary","legal authentication",,"A completion status in which a document has been signed manually or electronically by the individual who is legally responsible for that document. [HL7]","Document Legally Authenticated","Glossary CT 2025-09-26"
"C142600","C67497",,"CDISC Glossary","legally acceptable representative",,"An individual or juridical or other body authorized under applicable law to consent, on behalf of a prospective subject, to the subject's participation in the clinical trial. [ICH, E6 Glossary]","Legally Acceptable Representative","Glossary CT 2025-09-26"
"C84266","C67497",,"CDISC Glossary","life-threatening adverse event/ experience",,"Any adverse drug experience that places the patient or subject, in the view of the investigator, at immediate risk of death from the reaction as it occurred (i.e., it does not include a reaction that, had it occurred in a more severe form, might have caused death). [FDA 21 CFR 312.32; ICH-E2A]","Life Threatening Adverse Event","Glossary CT 2025-09-26"
"C16032","C67497",,"CDISC Glossary","long term follow-up (clinical study)","LTFU","A period in a clinical study during which selected observations are made over an extended timeframe, starting after the end of the active part of the study. NOTE: LTFU may be a post-study commitment. [After Long Term Follow-up After Administration of Human Gene Therapy Products. FDA Guidance for Industry. JAN 2020] See also follow-up (clinical study).","Long-term Follow-up","Glossary CT 2025-09-26"
"C15273","C67497",,"CDISC Glossary","longitudinal study",,"A prospective observational study designed to monitor health measures of individuals over a defined period of time. NOTE: A well-known example is the Framingham study, which began in 1948. [After clinicaltrials.gov] See also observational study.","Longitudinal Study","Glossary CT 2025-09-26"
"C142601","C67497",,"CDISC Glossary","low-interventional clinical trial",,"A clinical trial which fulfills all of the following conditions: (a) the investigational medicinal products, excluding placebos, are authorized; (b) according to the protocol of the clinical trial, (i) the investigational medicinal products are used in accordance with the terms of the marketing authorization; or (ii) the use of the investigational medicinal products is evidence-based and supported by published scientific evidence on the safety and efficacy of those investigational medicinal products in any of the Member States concerned; and (c) the additional diagnostic or monitoring procedures do not pose more than minimal additional risk or burden to the safety of the subjects compared to normal clinical practice in any Member State concerned. [REGULATION (EU) No 536/2014 Article 2.2.(3)]","Low-interventional Clinical Trial","Glossary CT 2025-09-26"
"C176231","C67497",,"CDISC Glossary","machine learning",,"A computing system (inspired by biological neural networks) that learns (progressively improves its ability) to do tasks by considering examples without task-specific programming. NOTE: Machine learning algorithms build a mathematical model based on sample data, known as ""training data"", in order to make predictions or decisions without being explicitly programmed to do so. [After DeepAI Machine Learning Glossary and Terms] See also deep learning, artificial intelligence (AI).","Machine Learning","Glossary CT 2025-09-26"
"C156625","C67497",,"CDISC Glossary","manufacturer (device)",,"Any person or entity who manufactures, prepares, propagates, compounds, assembles, or processes a device by chemical, physical, biological, or other procedure. The term includes any person who either (1) Repackages or otherwise changes the container, wrapper, or labeling of a device in furtherance of the distribution of the device from the original place of manufacture; (2) Initiates specifications for devices that are manufactured by a second party for subsequent distribution by the person initiating the specifications; (3) Manufactures components or accessories that are devices that are ready to be used and are intended to be commercially distributed and intended to be used as is, or are processed by a licensed practitioner or other qualified person to meet the needs of a particular patient; or (4) Is the U.S. agent of a foreign manufacturer. [after 21 CFR 803.3, FDA] See also manufacturer (drug).","Device Manufacture","Glossary CT 2025-09-26"
"C156626","C67497",,"CDISC Glossary","manufacturer (drug)",,"Any person or entity involved in the processing, packing, or holding of a medicinal product, including packaging and labeling, testing, and quality control. [after 21 CFR 210.3] See also manufacturer (device).","Drug Manufacturer","Glossary CT 2025-09-26"
"C142485","C67497",,"CDISC Glossary","mapping",,"In the context of representing or exchanging data, connecting an item or symbol to a code or concept. Compare to translation.","Data Mapping","Glossary CT 2025-09-26"
"C88074","C67497",,"CDISC Glossary","marketing authorization holder",,"Organization or person that is permitted to market a medicinal product in a jurisdiction. [After ISO 11615:2017, 3.1.41]","Marketing Authorization Holder","Glossary CT 2025-09-26"
"C142602","C67497",,"CDISC Glossary","marketing authorization procedure",,"Formal EU procedure applied by a medicines regulatory agency to grant a marketing authorization, to amend an existing one, to extend its duration or to revoke it. [After ISO 11615:2017, 3.1.43]","Marketing Authorization Procedure","Glossary CT 2025-09-26"
"C156642","C67497",,"CDISC Glossary","marketing authorization","marketing approval","Authorisation issued from a medicines regulatory agency that allows a Medicinal Product to be placed on the market. [after ISO 11615 2017-10 on Regulated Medicinal Product information]","Marketing Authorization","Glossary CT 2025-09-26"
"C142603","C67497",,"CDISC Glossary","marketing support trials",,"Clinical studies that are designed to clarify therapeutic benefits of a marketed product or to show potential decision-makers the rationale for preferring one therapy over another.","Marketing Support Trials","Glossary CT 2025-09-26"
"C63615","C67497",,"CDISC Glossary","markup",,"Computer-processable annotations within a multimedia document. NOTE: in the context of the HL7 specification, markup syntax is according to the XML specification. [HL7]","Markup","Glossary CT 2025-09-26"
"C191278","C67497",,"CDISC Glossary","masking",,"The mechanism used to obscure the distinctive characteristics of the study intervention or procedure to make it indistinguishable from the comparator. NOTE: Blinding refers to study participants while masking refers to the study intervention. [After Crisp A. Blinding in pharmaceutical clinical trials: An overview of points to consider. Contemp Clin Trials. 2015;43:155-163.] See also blinding.","Masking","Glossary CT 2025-09-26"
"C165770","C67497",,"CDISC Glossary","master protocol",,"A protocol designed to enable multiple substudies, which may have different objectives and involve coordinated efforts to evaluate one or more investigational drugs in one or more disease subtypes within the overall trial structure. NOTE: The term ""master protocol"" is often used to describe the design of such trials, with terms such as ""umbrella"", ""basket"", or ""platform"" describing specific designs. [After US FDA, Master Protocols: Efficient Clinical Trial Design Strategies to Expedite Development of Oncology Drugs and Biologics Guidance for Industry, 2022; Woodcock J, LaVange LM. Master Protocols to Study Multiple Therapies, Multiple Diseases, or Both. N Engl J Med. 2017 Jul 6;377(1):62-70.] See also umbrella trial design, basket trial design, platform trial design, adaptive design.","Master Protocol","Glossary CT 2025-09-26"
"C142604","C67497",,"CDISC Glossary","matched-pair design",,"A type of parallel trial design in which investigators identify pairs of subjects who are 'identical' with respect to relevant factors, then randomize them so that one receives Treatment a and the other Treatment B. See also pairing.","Matched-Pair Design","Glossary CT 2025-09-26"
"C53319","C67497",,"CDISC Glossary","mean",,"The sum of the values of all observations or data points divided by the number of observations; an arithmetical average.","Arithmetic Mean","Glossary CT 2025-09-26"
"C43820","C67497",,"CDISC Glossary","MedDRA (Medical Dictionary for Regulatory Activities)",,"A global standard medical terminology designed to supersede other terminologies used in the medical product development process, including COSTART, ICD9, and others.","MedDRA","Glossary CT 2025-09-26"
"C28007","C67497",,"CDISC Glossary","median",,"The middle value in a data set; that is, just as many values are greater than the median and lower than the median value. (With an even number of values, the conventional median is halfway between the two middle values.)","Median","Glossary CT 2025-09-26"
"C171514","C67497",,"CDISC Glossary","medical countermeasure",,"Pharmaceutical products, such as vaccines, antimicrobials, and antitoxins, and nonpharmaceutical products, such as ventilators, diagnostic tests, personal protective equipment (PPE), and patient (also general) decontamination materials, that may be used to prevent, mitigate, or treat the adverse health effects from a public health emergency. [After National Health Security Strategy 2019-2022]","Medical Countermeasure","Glossary CT 2025-09-26"
