<?xml version="1.0" encoding="UTF-8"?>
<!-- Dataset-XML: Untyped Data Example  --> 
<!-- Built from the SAS XPT files published with the SDTM-MSG (SDTM Metadata Submission Guidelines) V2.0 --> 
<ODM
  xmlns="http://www.cdisc.org/ns/odm/v1.3"
  xmlns:xlink="http://www.w3.org/1999/xlink" 
  xmlns:data="http://www.cdisc.org/ns/Dataset-XML/v1.0"
  FileType="Snapshot"
  ODMVersion="1.3.2"
  data:DatasetXMLVersion="1.0.0"
  FileOID="www.cdisc.org/StudyMSGv2/1/Define-XML_2.1.0(IG.CM).Data(CM)"
  PriorFileOID="www.cdisc.org/StudyMSGv2/1/Define-XML_2.1.0"
  CreationDateTime="2020-08-21T09:21:13"
  Originator="CDISC MSG Team"
  SourceSystem="M.Hungria-System"
  SourceSystemVersion="2.1-A1"
  >
  <ClinicalData
    StudyOID="cdisc.com/CDISCPILOT01"
    MetaDataVersionOID="MDV.MSGv2.0.SDTMIG.3.3.SDTM.1.7">
    <!-- Dataset (CM) -->
    <ItemGroupData ItemGroupOID="IG.CM" data:ItemGroupDataSeq="1">
      <ItemData ItemOID="IT.CM.STUDYID" Value="CDISCPILOT01"/>
      <ItemData ItemOID="IT.CM.DOMAIN" Value="CM"/>
      <ItemData ItemOID="IT.CM.USUBJID" Value="CDISC001"/>
      <ItemData ItemOID="IT.CM.CMSEQ" Value="1"/>
      <ItemData ItemOID="IT.CM.CMTRT" Value="ASPIRIN"/>
      <ItemData ItemOID="IT.CM.CMINDC" Value="PROPHYLAXIS OR NON-THERAPEUTIC USE"/>
      <ItemData ItemOID="IT.CM.CMDOSE" Value="1"/>
      <ItemData ItemOID="IT.CM.CMDOSU" Value="TABLET"/>
      <ItemData ItemOID="IT.CM.CMDOSFRQ" Value="QD"/>
      <ItemData ItemOID="IT.CM.CMROUTE" Value="ORAL"/>
      <ItemData ItemOID="IT.CM.EPOCH" Value="SCREENING"/>
      <ItemData ItemOID="IT.CM.CMSTDTC" Value="2011"/>
      <ItemData ItemOID="IT.CM.CMENDTC" Value="2013-04-29"/>
      <ItemData ItemOID="IT.CM.CMENDY" Value="151"/>
    </ItemGroupData>
    <ItemGroupData ItemGroupOID="IG.CM" data:ItemGroupDataSeq="2">
      <ItemData ItemOID="IT.CM.STUDYID" Value="CDISCPILOT01"/>
      <ItemData ItemOID="IT.CM.DOMAIN" Value="CM"/>
      <ItemData ItemOID="IT.CM.USUBJID" Value="CDISC001"/>
      <ItemData ItemOID="IT.CM.CMSEQ" Value="2"/>
      <ItemData ItemOID="IT.CM.CMTRT" Value="METAMUCIL"/>
      <ItemData ItemOID="IT.CM.CMINDC" Value="PROPHYLAXIS OR NON-THERAPEUTIC USE"/>
      <ItemData ItemOID="IT.CM.CMDOSE" Value="1"/>
      <ItemData ItemOID="IT.CM.CMDOSU" Value="TABLET"/>
      <ItemData ItemOID="IT.CM.CMDOSFRQ" Value="PRN"/>
      <ItemData ItemOID="IT.CM.CMROUTE" Value="ORAL"/>
      <ItemData ItemOID="IT.CM.EPOCH" Value="SCREENING"/>
      <ItemData ItemOID="IT.CM.CMSTDTC" Value="2012-08"/>
      <ItemData ItemOID="IT.CM.CMENRTPT" Value="ONGOING"/>
      <ItemData ItemOID="IT.CM.CMENTPT" Value="2013-05-20"/>
    </ItemGroupData>
    <ItemGroupData ItemGroupOID="IG.CM" data:ItemGroupDataSeq="3">
      <ItemData ItemOID="IT.CM.STUDYID" Value="CDISCPILOT01"/>
      <ItemData ItemOID="IT.CM.DOMAIN" Value="CM"/>
      <ItemData ItemOID="IT.CM.USUBJID" Value="CDISC001"/>
      <ItemData ItemOID="IT.CM.CMSEQ" Value="3"/>
      <ItemData ItemOID="IT.CM.CMTRT" Value="HYDROCORTISONE, TOPICAL"/>
      <ItemData ItemOID="IT.CM.CMINDC" Value="PROPHYLAXIS OR NON-THERAPEUTIC USE"/>
      <ItemData ItemOID="IT.CM.CMDOSE" Value="1"/>
      <ItemData ItemOID="IT.CM.CMDOSU" Value="TABLET"/>
      <ItemData ItemOID="IT.CM.CMDOSFRQ" Value="BID"/>
      <ItemData ItemOID="IT.CM.CMROUTE" Value="TOPICAL"/>
      <ItemData ItemOID="IT.CM.EPOCH" Value="TREATMENT"/>
      <ItemData ItemOID="IT.CM.CMSTDTC" Value="2013-01-11"/>
      <ItemData ItemOID="IT.CM.CMSTDY" Value="43"/>
      <ItemData ItemOID="IT.CM.CMENRTPT" Value="ONGOING"/>
      <ItemData ItemOID="IT.CM.CMENTPT" Value="2013-05-20"/>
    </ItemGroupData>
    <ItemGroupData ItemGroupOID="IG.CM" data:ItemGroupDataSeq="4">
      <ItemData ItemOID="IT.CM.STUDYID" Value="CDISCPILOT01"/>
      <ItemData ItemOID="IT.CM.DOMAIN" Value="CM"/>
      <ItemData ItemOID="IT.CM.USUBJID" Value="CDISC001"/>
      <ItemData ItemOID="IT.CM.CMSEQ" Value="4"/>
      <ItemData ItemOID="IT.CM.CMTRT" Value="HYTRIN"/>
      <ItemData ItemOID="IT.CM.CMINDC" Value="PROPHYLAXIS OR NON-THERAPEUTIC USE"/>
      <ItemData ItemOID="IT.CM.CMDOSE" Value="2"/>
      <ItemData ItemOID="IT.CM.CMDOSU" Value="TABLET"/>
      <ItemData ItemOID="IT.CM.CMDOSFRQ" Value="Q4H"/>
      <ItemData ItemOID="IT.CM.CMROUTE" Value="ORAL"/>
      <ItemData ItemOID="IT.CM.EPOCH" Value="TREATMENT"/>
      <ItemData ItemOID="IT.CM.CMSTDTC" Value="2013-04-19"/>
      <ItemData ItemOID="IT.CM.CMENDTC" Value="2013-05-14"/>
      <ItemData ItemOID="IT.CM.CMSTDY" Value="141"/>
      <ItemData ItemOID="IT.CM.CMENDY" Value="166"/>
    </ItemGroupData>
    <ItemGroupData ItemGroupOID="IG.CM" data:ItemGroupDataSeq="5">
      <ItemData ItemOID="IT.CM.STUDYID" Value="CDISCPILOT01"/>
      <ItemData ItemOID="IT.CM.DOMAIN" Value="CM"/>
      <ItemData ItemOID="IT.CM.USUBJID" Value="CDISC001"/>
      <ItemData ItemOID="IT.CM.CMSEQ" Value="5"/>
      <ItemData ItemOID="IT.CM.CMTRT" Value="ASPIRIN"/>
      <ItemData ItemOID="IT.CM.CMINDC" Value="PROPHYLAXIS OR NON-THERAPEUTIC USE"/>
      <ItemData ItemOID="IT.CM.CMDOSE" Value="80"/>
      <ItemData ItemOID="IT.CM.CMDOSU" Value="mg"/>
      <ItemData ItemOID="IT.CM.CMDOSFRQ" Value="QID"/>
      <ItemData ItemOID="IT.CM.CMROUTE" Value="ORAL"/>
      <ItemData ItemOID="IT.CM.EPOCH" Value="TREATMENT"/>
      <ItemData ItemOID="IT.CM.CMSTDTC" Value="2013-04-29"/>
      <ItemData ItemOID="IT.CM.CMSTDY" Value="151"/>
      <ItemData ItemOID="IT.CM.CMENRTPT" Value="ONGOING"/>
      <ItemData ItemOID="IT.CM.CMENTPT" Value="2013-05-20"/>
    </ItemGroupData>
    <ItemGroupData ItemGroupOID="IG.CM" data:ItemGroupDataSeq="6">
      <ItemData ItemOID="IT.CM.STUDYID" Value="CDISCPILOT01"/>
      <ItemData ItemOID="IT.CM.DOMAIN" Value="CM"/>
      <ItemData ItemOID="IT.CM.USUBJID" Value="CDISC001"/>
      <ItemData ItemOID="IT.CM.CMSEQ" Value="6"/>
      <ItemData ItemOID="IT.CM.CMTRT" Value="FEOSOL"/>
      <ItemData ItemOID="IT.CM.CMINDC" Value="PROPHYLAXIS OR NON-THERAPEUTIC USE"/>
      <ItemData ItemOID="IT.CM.CMDOSE" Value="325"/>
      <ItemData ItemOID="IT.CM.CMDOSU" Value="mg"/>
      <ItemData ItemOID="IT.CM.CMDOSFRQ" Value="Q6H"/>
      <ItemData ItemOID="IT.CM.CMROUTE" Value="ORAL"/>
      <ItemData ItemOID="IT.CM.EPOCH" Value="TREATMENT"/>
      <ItemData ItemOID="IT.CM.CMSTDTC" Value="2013-04-29"/>
      <ItemData ItemOID="IT.CM.CMSTDY" Value="151"/>
      <ItemData ItemOID="IT.CM.CMENRTPT" Value="ONGOING"/>
      <ItemData ItemOID="IT.CM.CMENTPT" Value="2013-05-20"/>
    </ItemGroupData>
    <ItemGroupData ItemGroupOID="IG.CM" data:ItemGroupDataSeq="7">
      <ItemData ItemOID="IT.CM.STUDYID" Value="CDISCPILOT01"/>
      <ItemData ItemOID="IT.CM.DOMAIN" Value="CM"/>
      <ItemData ItemOID="IT.CM.USUBJID" Value="CDISC001"/>
      <ItemData ItemOID="IT.CM.CMSEQ" Value="7"/>
      <ItemData ItemOID="IT.CM.CMTRT" Value="PRAVACHOL"/>
      <ItemData ItemOID="IT.CM.CMINDC" Value="PROPHYLAXIS OR NON-THERAPEUTIC USE"/>
      <ItemData ItemOID="IT.CM.CMDOSE" Value="20"/>
      <ItemData ItemOID="IT.CM.CMDOSU" Value="mg"/>
      <ItemData ItemOID="IT.CM.CMROUTE" Value="ORAL"/>
      <ItemData ItemOID="IT.CM.EPOCH" Value="TREATMENT"/>
      <ItemData ItemOID="IT.CM.CMSTDTC" Value="2013-05-08"/>
      <ItemData ItemOID="IT.CM.CMSTDY" Value="160"/>
      <ItemData ItemOID="IT.CM.CMENRTPT" Value="ONGOING"/>
      <ItemData ItemOID="IT.CM.CMENTPT" Value="2013-05-20"/>
    </ItemGroupData>
    <ItemGroupData ItemGroupOID="IG.CM" data:ItemGroupDataSeq="8">
      <ItemData ItemOID="IT.CM.STUDYID" Value="CDISCPILOT01"/>
      <ItemData ItemOID="IT.CM.DOMAIN" Value="CM"/>
      <ItemData ItemOID="IT.CM.USUBJID" Value="CDISC002"/>
      <ItemData ItemOID="IT.CM.CMSEQ" Value="1"/>
      <ItemData ItemOID="IT.CM.CMTRT" Value="DEMEROL"/>
      <ItemData ItemOID="IT.CM.CMINDC" Value="PROPHYLAXIS OR NON-THERAPEUTIC USE"/>
      <ItemData ItemOID="IT.CM.CMDOSE" Value="50"/>
      <ItemData ItemOID="IT.CM.CMDOSU" Value="mg"/>
      <ItemData ItemOID="IT.CM.CMROUTE" Value="INTRAVENOUS"/>
      <ItemData ItemOID="IT.CM.EPOCH" Value="TREATMENT"/>
      <ItemData ItemOID="IT.CM.CMSTDTC" Value="2012-11-21"/>
      <ItemData ItemOID="IT.CM.CMENDTC" Value="2012-11-21"/>
      <ItemData ItemOID="IT.CM.CMSTDY" Value="7"/>
      <ItemData ItemOID="IT.CM.CMENDY" Value="7"/>
    </ItemGroupData>
    <ItemGroupData ItemGroupOID="IG.CM" data:ItemGroupDataSeq="9">
      <ItemData ItemOID="IT.CM.STUDYID" Value="CDISCPILOT01"/>
      <ItemData ItemOID="IT.CM.DOMAIN" Value="CM"/>
      <ItemData ItemOID="IT.CM.USUBJID" Value="CDISC002"/>
      <ItemData ItemOID="IT.CM.CMSEQ" Value="2"/>
      <ItemData ItemOID="IT.CM.CMTRT" Value="TYLENOL W/CODEINE NO. 3"/>
      <ItemData ItemOID="IT.CM.CMINDC" Value="PROPHYLAXIS OR NON-THERAPEUTIC USE"/>
      <ItemData ItemOID="IT.CM.CMDOSE" Value="2"/>
      <ItemData ItemOID="IT.CM.CMDOSU" Value="TABLET"/>
      <ItemData ItemOID="IT.CM.CMROUTE" Value="ORAL"/>
      <ItemData ItemOID="IT.CM.EPOCH" Value="TREATMENT"/>
      <ItemData ItemOID="IT.CM.CMSTDTC" Value="2012-11-21"/>
      <ItemData ItemOID="IT.CM.CMENDTC" Value="2012-11-21"/>
      <ItemData ItemOID="IT.CM.CMSTDY" Value="7"/>
      <ItemData ItemOID="IT.CM.CMENDY" Value="7"/>
    </ItemGroupData>
    <ItemGroupData ItemGroupOID="IG.CM" data:ItemGroupDataSeq="10">
      <ItemData ItemOID="IT.CM.STUDYID" Value="CDISCPILOT01"/>
      <ItemData ItemOID="IT.CM.DOMAIN" Value="CM"/>
      <ItemData ItemOID="IT.CM.USUBJID" Value="CDISC002"/>
      <ItemData ItemOID="IT.CM.CMSEQ" Value="3"/>
      <ItemData ItemOID="IT.CM.CMTRT" Value="HYDROCORTISONE"/>
      <ItemData ItemOID="IT.CM.CMINDC" Value="PROPHYLAXIS OR NON-THERAPEUTIC USE"/>
      <ItemData ItemOID="IT.CM.CMDOSE" Value="1"/>
      <ItemData ItemOID="IT.CM.CMDOSU" Value="TABLET"/>
      <ItemData ItemOID="IT.CM.CMROUTE" Value="TOPICAL"/>
      <ItemData ItemOID="IT.CM.EPOCH" Value="TREATMENT"/>
      <ItemData ItemOID="IT.CM.CMSTDTC" Value="2012-12-08"/>
      <ItemData ItemOID="IT.CM.CMENDTC" Value="2013-01-14"/>
      <ItemData ItemOID="IT.CM.CMSTDY" Value="24"/>
      <ItemData ItemOID="IT.CM.CMENDY" Value="61"/>
    </ItemGroupData>
    <ItemGroupData ItemGroupOID="IG.CM" data:ItemGroupDataSeq="11">
      <ItemData ItemOID="IT.CM.STUDYID" Value="CDISCPILOT01"/>
      <ItemData ItemOID="IT.CM.DOMAIN" Value="CM"/>
      <ItemData ItemOID="IT.CM.USUBJID" Value="CDISC002"/>
      <ItemData ItemOID="IT.CM.CMSEQ" Value="4"/>
      <ItemData ItemOID="IT.CM.CMTRT" Value="LOMOTIL"/>
      <ItemData ItemOID="IT.CM.CMINDC" Value="PROPHYLAXIS OR NON-THERAPEUTIC USE"/>
      <ItemData ItemOID="IT.CM.CMDOSE" Value="2.5"/>
      <ItemData ItemOID="IT.CM.CMDOSU" Value="mg"/>
      <ItemData ItemOID="IT.CM.CMROUTE" Value="ORAL"/>
      <ItemData ItemOID="IT.CM.EPOCH" Value="TREATMENT"/>
      <ItemData ItemOID="IT.CM.CMSTDTC" Value="2013-01-04"/>
      <ItemData ItemOID="IT.CM.CMENDTC" Value="2013-01-04"/>
      <ItemData ItemOID="IT.CM.CMSTDY" Value="51"/>
      <ItemData ItemOID="IT.CM.CMENDY" Value="51"/>
    </ItemGroupData>
    <ItemGroupData ItemGroupOID="IG.CM" data:ItemGroupDataSeq="12">
      <ItemData ItemOID="IT.CM.STUDYID" Value="CDISCPILOT01"/>
      <ItemData ItemOID="IT.CM.DOMAIN" Value="CM"/>
      <ItemData ItemOID="IT.CM.USUBJID" Value="CDISC002"/>
      <ItemData ItemOID="IT.CM.CMSEQ" Value="5"/>
      <ItemData ItemOID="IT.CM.CMTRT" Value="MYLANTA"/>
      <ItemData ItemOID="IT.CM.CMINDC" Value="PROPHYLAXIS OR NON-THERAPEUTIC USE"/>
      <ItemData ItemOID="IT.CM.CMDOSE" Value="1"/>
      <ItemData ItemOID="IT.CM.CMDOSU" Value="TABLET"/>
      <ItemData ItemOID="IT.CM.CMROUTE" Value="ORAL"/>
      <ItemData ItemOID="IT.CM.EPOCH" Value="TREATMENT"/>
      <ItemData ItemOID="IT.CM.CMSTDTC" Value="2013-01-05"/>
      <ItemData ItemOID="IT.CM.CMENDTC" Value="2013-01-14"/>
      <ItemData ItemOID="IT.CM.CMSTDY" Value="52"/>
      <ItemData ItemOID="IT.CM.CMENDY" Value="61"/>
    </ItemGroupData>
    <ItemGroupData ItemGroupOID="IG.CM" data:ItemGroupDataSeq="13">
      <ItemData ItemOID="IT.CM.STUDYID" Value="CDISCPILOT01"/>
      <ItemData ItemOID="IT.CM.DOMAIN" Value="CM"/>
      <ItemData ItemOID="IT.CM.USUBJID" Value="CDISC003"/>
      <ItemData ItemOID="IT.CM.CMSEQ" Value="1"/>
      <ItemData ItemOID="IT.CM.CMTRT" Value="ADVIL"/>
      <ItemData ItemOID="IT.CM.CMINDC" Value="PROPHYLAXIS OR NON-THERAPEUTIC USE"/>
      <ItemData ItemOID="IT.CM.CMDOSE" Value="2"/>
      <ItemData ItemOID="IT.CM.CMDOSU" Value="TABLET"/>
      <ItemData ItemOID="IT.CM.CMROUTE" Value="ORAL"/>
      <ItemData ItemOID="IT.CM.EPOCH" Value="SCREENING"/>
      <ItemData ItemOID="IT.CM.CMSTDTC" Value="2010"/>
      <ItemData ItemOID="IT.CM.CMENRTPT" Value="ONGOING"/>
      <ItemData ItemOID="IT.CM.CMENTPT" Value="2014-02-13"/>
    </ItemGroupData>
    <ItemGroupData ItemGroupOID="IG.CM" data:ItemGroupDataSeq="14">
      <ItemData ItemOID="IT.CM.STUDYID" Value="CDISCPILOT01"/>
      <ItemData ItemOID="IT.CM.DOMAIN" Value="CM"/>
      <ItemData ItemOID="IT.CM.USUBJID" Value="CDISC003"/>
      <ItemData ItemOID="IT.CM.CMSEQ" Value="2"/>
      <ItemData ItemOID="IT.CM.CMTRT" Value="MULTIVITAMINS"/>
      <ItemData ItemOID="IT.CM.CMINDC" Value="PROPHYLAXIS OR NON-THERAPEUTIC USE"/>
      <ItemData ItemOID="IT.CM.CMDOSE" Value="1"/>
      <ItemData ItemOID="IT.CM.CMDOSU" Value="TABLET"/>
      <ItemData ItemOID="IT.CM.CMROUTE" Value="ORAL"/>
      <ItemData ItemOID="IT.CM.EPOCH" Value="SCREENING"/>
      <ItemData ItemOID="IT.CM.CMSTDTC" Value="2010"/>
      <ItemData ItemOID="IT.CM.CMENRTPT" Value="ONGOING"/>
      <ItemData ItemOID="IT.CM.CMENTPT" Value="2014-02-13"/>
    </ItemGroupData>
    <ItemGroupData ItemGroupOID="IG.CM" data:ItemGroupDataSeq="15">
      <ItemData ItemOID="IT.CM.STUDYID" Value="CDISCPILOT01"/>
      <ItemData ItemOID="IT.CM.DOMAIN" Value="CM"/>
      <ItemData ItemOID="IT.CM.USUBJID" Value="CDISC003"/>
      <ItemData ItemOID="IT.CM.CMSEQ" Value="3"/>
      <ItemData ItemOID="IT.CM.CMTRT" Value="EXCEDRIN"/>
      <ItemData ItemOID="IT.CM.CMINDC" Value="PROPHYLAXIS OR NON-THERAPEUTIC USE"/>
      <ItemData ItemOID="IT.CM.CMDOSE" Value="2"/>
      <ItemData ItemOID="IT.CM.CMDOSU" Value="TABLET"/>
      <ItemData ItemOID="IT.CM.CMROUTE" Value="ORAL"/>
      <ItemData ItemOID="IT.CM.EPOCH" Value="SCREENING"/>
      <ItemData ItemOID="IT.CM.CMSTDTC" Value="2011"/>
      <ItemData ItemOID="IT.CM.CMENRTPT" Value="ONGOING"/>
      <ItemData ItemOID="IT.CM.CMENTPT" Value="2014-02-13"/>
    </ItemGroupData>
    <ItemGroupData ItemGroupOID="IG.CM" data:ItemGroupDataSeq="16">
      <ItemData ItemOID="IT.CM.STUDYID" Value="CDISCPILOT01"/>
      <ItemData ItemOID="IT.CM.DOMAIN" Value="CM"/>
      <ItemData ItemOID="IT.CM.USUBJID" Value="CDISC003"/>
      <ItemData ItemOID="IT.CM.CMSEQ" Value="4"/>
      <ItemData ItemOID="IT.CM.CMTRT" Value="METAMUCIL"/>
      <ItemData ItemOID="IT.CM.CMINDC" Value="PROPHYLAXIS OR NON-THERAPEUTIC USE"/>
      <ItemData ItemOID="IT.CM.CMDOSE" Value="2"/>
      <ItemData ItemOID="IT.CM.CMDOSU" Value="TABLET"/>
      <ItemData ItemOID="IT.CM.CMROUTE" Value="ORAL"/>
      <ItemData ItemOID="IT.CM.EPOCH" Value="SCREENING"/>
      <ItemData ItemOID="IT.CM.CMSTDTC" Value="2012-03-01"/>
      <ItemData ItemOID="IT.CM.CMSTDY" Value="-546"/>
      <ItemData ItemOID="IT.CM.CMENRTPT" Value="ONGOING"/>
      <ItemData ItemOID="IT.CM.CMENTPT" Value="2014-02-13"/>
    </ItemGroupData>
    <ItemGroupData ItemGroupOID="IG.CM" data:ItemGroupDataSeq="17">
      <ItemData ItemOID="IT.CM.STUDYID" Value="CDISCPILOT01"/>
      <ItemData ItemOID="IT.CM.DOMAIN" Value="CM"/>
      <ItemData ItemOID="IT.CM.USUBJID" Value="CDISC003"/>
      <ItemData ItemOID="IT.CM.CMSEQ" Value="5"/>
      <ItemData ItemOID="IT.CM.CMTRT" Value="NEO-SYNEPHRINE"/>
      <ItemData ItemOID="IT.CM.CMINDC" Value="PROPHYLAXIS OR NON-THERAPEUTIC USE"/>
      <ItemData ItemOID="IT.CM.CMDOSE" Value="1"/>
      <ItemData ItemOID="IT.CM.CMDOSU" Value="TABLET"/>
      <ItemData ItemOID="IT.CM.CMROUTE" Value="NASAL"/>
      <ItemData ItemOID="IT.CM.EPOCH" Value="TREATMENT"/>
      <ItemData ItemOID="IT.CM.CMSTDTC" Value="2013-09-01"/>
      <ItemData ItemOID="IT.CM.CMENDTC" Value="2013-09-30"/>
      <ItemData ItemOID="IT.CM.CMSTDY" Value="4"/>
      <ItemData ItemOID="IT.CM.CMENDY" Value="33"/>
    </ItemGroupData>
    <ItemGroupData ItemGroupOID="IG.CM" data:ItemGroupDataSeq="18">
      <ItemData ItemOID="IT.CM.STUDYID" Value="CDISCPILOT01"/>
      <ItemData ItemOID="IT.CM.DOMAIN" Value="CM"/>
      <ItemData ItemOID="IT.CM.USUBJID" Value="CDISC003"/>
      <ItemData ItemOID="IT.CM.CMSEQ" Value="6"/>
      <ItemData ItemOID="IT.CM.CMTRT" Value="PSEUDOEPHEDRINE HYDROCHLORIDE"/>
      <ItemData ItemOID="IT.CM.CMINDC" Value="PROPHYLAXIS OR NON-THERAPEUTIC USE"/>
      <ItemData ItemOID="IT.CM.CMDOSE" Value="2"/>
      <ItemData ItemOID="IT.CM.CMDOSU" Value="TABLET"/>
      <ItemData ItemOID="IT.CM.CMROUTE" Value="ORAL"/>
      <ItemData ItemOID="IT.CM.EPOCH" Value="TREATMENT"/>
      <ItemData ItemOID="IT.CM.CMSTDTC" Value="2013-09-02"/>
      <ItemData ItemOID="IT.CM.CMENDTC" Value="2013-09-30"/>
      <ItemData ItemOID="IT.CM.CMSTDY" Value="5"/>
      <ItemData ItemOID="IT.CM.CMENDY" Value="33"/>
    </ItemGroupData>
    <ItemGroupData ItemGroupOID="IG.CM" data:ItemGroupDataSeq="19">
      <ItemData ItemOID="IT.CM.STUDYID" Value="CDISCPILOT01"/>
      <ItemData ItemOID="IT.CM.DOMAIN" Value="CM"/>
      <ItemData ItemOID="IT.CM.USUBJID" Value="CDISC004"/>
      <ItemData ItemOID="IT.CM.CMSEQ" Value="1"/>
      <ItemData ItemOID="IT.CM.CMTRT" Value="VITAMIN C"/>
      <ItemData ItemOID="IT.CM.CMINDC" Value="PROPHYLAXIS OR NON-THERAPEUTIC USE"/>
      <ItemData ItemOID="IT.CM.CMDOSE" Value="500"/>
      <ItemData ItemOID="IT.CM.CMDOSU" Value="mg"/>
      <ItemData ItemOID="IT.CM.CMROUTE" Value="ORAL"/>
      <ItemData ItemOID="IT.CM.EPOCH" Value="SCREENING"/>
      <ItemData ItemOID="IT.CM.CMSTDTC" Value="1983"/>
      <ItemData ItemOID="IT.CM.CMENRTPT" Value="ONGOING"/>
      <ItemData ItemOID="IT.CM.CMENTPT" Value="2014-03-18"/>
    </ItemGroupData>
    <ItemGroupData ItemGroupOID="IG.CM" data:ItemGroupDataSeq="20">
      <ItemData ItemOID="IT.CM.STUDYID" Value="CDISCPILOT01"/>
      <ItemData ItemOID="IT.CM.DOMAIN" Value="CM"/>
      <ItemData ItemOID="IT.CM.USUBJID" Value="CDISC004"/>
      <ItemData ItemOID="IT.CM.CMSEQ" Value="2"/>
      <ItemData ItemOID="IT.CM.CMTRT" Value="VITAMIN E"/>
      <ItemData ItemOID="IT.CM.CMINDC" Value="PROPHYLAXIS OR NON-THERAPEUTIC USE"/>
      <ItemData ItemOID="IT.CM.CMDOSE" Value="400"/>
      <ItemData ItemOID="IT.CM.CMDOSU" Value="mg"/>
      <ItemData ItemOID="IT.CM.CMROUTE" Value="ORAL"/>
      <ItemData ItemOID="IT.CM.EPOCH" Value="SCREENING"/>
      <ItemData ItemOID="IT.CM.CMSTDTC" Value="1983"/>
      <ItemData ItemOID="IT.CM.CMENRTPT" Value="ONGOING"/>
      <ItemData ItemOID="IT.CM.CMENTPT" Value="2014-03-18"/>
    </ItemGroupData>
    <ItemGroupData ItemGroupOID="IG.CM" data:ItemGroupDataSeq="21">
      <ItemData ItemOID="IT.CM.STUDYID" Value="CDISCPILOT01"/>
      <ItemData ItemOID="IT.CM.DOMAIN" Value="CM"/>
      <ItemData ItemOID="IT.CM.USUBJID" Value="CDISC005"/>
      <ItemData ItemOID="IT.CM.CMSEQ" Value="1"/>
      <ItemData ItemOID="IT.CM.CMTRT" Value="CENTRUM SILVER"/>
      <ItemData ItemOID="IT.CM.CMINDC" Value="PROPHYLAXIS OR NON-THERAPEUTIC USE"/>
      <ItemData ItemOID="IT.CM.CMDOSE" Value="1"/>
      <ItemData ItemOID="IT.CM.CMDOSU" Value="TABLET"/>
      <ItemData ItemOID="IT.CM.CMROUTE" Value="ORAL"/>
      <ItemData ItemOID="IT.CM.EPOCH" Value="SCREENING"/>
      <ItemData ItemOID="IT.CM.CMSTDTC" Value="2012-03"/>
      <ItemData ItemOID="IT.CM.CMENRTPT" Value="ONGOING"/>
      <ItemData ItemOID="IT.CM.CMENTPT" Value="2013-08-06"/>
    </ItemGroupData>
    <ItemGroupData ItemGroupOID="IG.CM" data:ItemGroupDataSeq="22">
      <ItemData ItemOID="IT.CM.STUDYID" Value="CDISCPILOT01"/>
      <ItemData ItemOID="IT.CM.DOMAIN" Value="CM"/>
      <ItemData ItemOID="IT.CM.USUBJID" Value="CDISC005"/>
      <ItemData ItemOID="IT.CM.CMSEQ" Value="2"/>
      <ItemData ItemOID="IT.CM.CMTRT" Value="CEPHALEXIN"/>
      <ItemData ItemOID="IT.CM.CMINDC" Value="PROPHYLAXIS OR NON-THERAPEUTIC USE"/>
      <ItemData ItemOID="IT.CM.CMDOSE" Value="500"/>
      <ItemData ItemOID="IT.CM.CMDOSU" Value="mg"/>
      <ItemData ItemOID="IT.CM.CMROUTE" Value="ORAL"/>
      <ItemData ItemOID="IT.CM.EPOCH" Value="TREATMENT"/>
      <ItemData ItemOID="IT.CM.CMSTDTC" Value="2013-07-19"/>
      <ItemData ItemOID="IT.CM.CMENDTC" Value="2013-08-01"/>
      <ItemData ItemOID="IT.CM.CMSTDY" Value="166"/>
      <ItemData ItemOID="IT.CM.CMENDY" Value="179"/>
    </ItemGroupData>
    <ItemGroupData ItemGroupOID="IG.CM" data:ItemGroupDataSeq="23">
      <ItemData ItemOID="IT.CM.STUDYID" Value="CDISCPILOT01"/>
      <ItemData ItemOID="IT.CM.DOMAIN" Value="CM"/>
      <ItemData ItemOID="IT.CM.USUBJID" Value="CDISC005"/>
      <ItemData ItemOID="IT.CM.CMSEQ" Value="3"/>
      <ItemData ItemOID="IT.CM.CMTRT" Value="PROMETHAZINE HCL W/CODEINE"/>
      <ItemData ItemOID="IT.CM.CMINDC" Value="PROPHYLAXIS OR NON-THERAPEUTIC USE"/>
      <ItemData ItemOID="IT.CM.CMDOSE" Value="2"/>
      <ItemData ItemOID="IT.CM.CMDOSU" Value="TABLET"/>
      <ItemData ItemOID="IT.CM.CMROUTE" Value="ORAL"/>
      <ItemData ItemOID="IT.CM.EPOCH" Value="TREATMENT"/>
      <ItemData ItemOID="IT.CM.CMSTDTC" Value="2013-07-19"/>
      <ItemData ItemOID="IT.CM.CMENDTC" Value="2013-07-25"/>
      <ItemData ItemOID="IT.CM.CMSTDY" Value="166"/>
      <ItemData ItemOID="IT.CM.CMENDY" Value="172"/>
    </ItemGroupData>
    <ItemGroupData ItemGroupOID="IG.CM" data:ItemGroupDataSeq="24">
      <ItemData ItemOID="IT.CM.STUDYID" Value="CDISCPILOT01"/>
      <ItemData ItemOID="IT.CM.DOMAIN" Value="CM"/>
      <ItemData ItemOID="IT.CM.USUBJID" Value="CDISC005"/>
      <ItemData ItemOID="IT.CM.CMSEQ" Value="4"/>
      <ItemData ItemOID="IT.CM.CMTRT" Value="HYDROCORTISONE"/>
      <ItemData ItemOID="IT.CM.CMINDC" Value="PROPHYLAXIS OR NON-THERAPEUTIC USE"/>
      <ItemData ItemOID="IT.CM.CMDOSE" Value="1"/>
      <ItemData ItemOID="IT.CM.CMDOSU" Value="TABLET"/>
      <ItemData ItemOID="IT.CM.CMROUTE" Value="TOPICAL"/>
      <ItemData ItemOID="IT.CM.EPOCH" Value="TREATMENT"/>
      <ItemData ItemOID="IT.CM.CMSTDTC" Value="2013-05-14"/>
      <ItemData ItemOID="IT.CM.CMSTDY" Value="100"/>
      <ItemData ItemOID="IT.CM.CMENRTPT" Value="ONGOING"/>
      <ItemData ItemOID="IT.CM.CMENTPT" Value="2013-08-06"/>
    </ItemGroupData>
    <ItemGroupData ItemGroupOID="IG.CM" data:ItemGroupDataSeq="25">
      <ItemData ItemOID="IT.CM.STUDYID" Value="CDISCPILOT01"/>
      <ItemData ItemOID="IT.CM.DOMAIN" Value="CM"/>
      <ItemData ItemOID="IT.CM.USUBJID" Value="CDISC007"/>
      <ItemData ItemOID="IT.CM.CMSEQ" Value="1"/>
      <ItemData ItemOID="IT.CM.CMTRT" Value="METAMUCIL"/>
      <ItemData ItemOID="IT.CM.CMINDC" Value="PROPHYLAXIS OR NON-THERAPEUTIC USE"/>
      <ItemData ItemOID="IT.CM.CMDOSE" Value="3"/>
      <ItemData ItemOID="IT.CM.CMDOSU" Value="mg"/>
      <ItemData ItemOID="IT.CM.CMROUTE" Value="ORAL"/>
      <ItemData ItemOID="IT.CM.EPOCH" Value="SCREENING"/>
      <ItemData ItemOID="IT.CM.CMSTDTC" Value="2009"/>
      <ItemData ItemOID="IT.CM.CMENRTPT" Value="ONGOING"/>
      <ItemData ItemOID="IT.CM.CMENTPT" Value="2013-06-20"/>
    </ItemGroupData>
    <ItemGroupData ItemGroupOID="IG.CM" data:ItemGroupDataSeq="26">
      <ItemData ItemOID="IT.CM.STUDYID" Value="CDISCPILOT01"/>
      <ItemData ItemOID="IT.CM.DOMAIN" Value="CM"/>
      <ItemData ItemOID="IT.CM.USUBJID" Value="CDISC007"/>
      <ItemData ItemOID="IT.CM.CMSEQ" Value="2"/>
      <ItemData ItemOID="IT.CM.CMTRT" Value="ADVIL"/>
      <ItemData ItemOID="IT.CM.CMINDC" Value="PROPHYLAXIS OR NON-THERAPEUTIC USE"/>
      <ItemData ItemOID="IT.CM.CMDOSE" Value="200"/>
      <ItemData ItemOID="IT.CM.CMDOSU" Value="mg"/>
      <ItemData ItemOID="IT.CM.CMROUTE" Value="ORAL"/>
      <ItemData ItemOID="IT.CM.EPOCH" Value="SCREENING"/>
      <ItemData ItemOID="IT.CM.CMSTDTC" Value="2011"/>
      <ItemData ItemOID="IT.CM.CMENRTPT" Value="ONGOING"/>
      <ItemData ItemOID="IT.CM.CMENTPT" Value="2013-06-20"/>
    </ItemGroupData>
    <ItemGroupData ItemGroupOID="IG.CM" data:ItemGroupDataSeq="27">
      <ItemData ItemOID="IT.CM.STUDYID" Value="CDISCPILOT01"/>
      <ItemData ItemOID="IT.CM.DOMAIN" Value="CM"/>
      <ItemData ItemOID="IT.CM.USUBJID" Value="CDISC007"/>
      <ItemData ItemOID="IT.CM.CMSEQ" Value="3"/>
      <ItemData ItemOID="IT.CM.CMTRT" Value="DOCUSATE SODIUM"/>
      <ItemData ItemOID="IT.CM.CMINDC" Value="PROPHYLAXIS OR NON-THERAPEUTIC USE"/>
      <ItemData ItemOID="IT.CM.CMDOSE" Value="100"/>
      <ItemData ItemOID="IT.CM.CMDOSU" Value="mg"/>
      <ItemData ItemOID="IT.CM.CMROUTE" Value="ORAL"/>
      <ItemData ItemOID="IT.CM.EPOCH" Value="SCREENING"/>
      <ItemData ItemOID="IT.CM.CMSTDTC" Value="2012-11"/>
      <ItemData ItemOID="IT.CM.CMENDTC" Value="2013-01-05"/>
      <ItemData ItemOID="IT.CM.CMENDY" Value="1"/>
    </ItemGroupData>
    <ItemGroupData ItemGroupOID="IG.CM" data:ItemGroupDataSeq="28">
      <ItemData ItemOID="IT.CM.STUDYID" Value="CDISCPILOT01"/>
      <ItemData ItemOID="IT.CM.DOMAIN" Value="CM"/>
      <ItemData ItemOID="IT.CM.USUBJID" Value="CDISC007"/>
      <ItemData ItemOID="IT.CM.CMSEQ" Value="4"/>
      <ItemData ItemOID="IT.CM.CMTRT" Value="BENADRYL"/>
      <ItemData ItemOID="IT.CM.CMINDC" Value="PROPHYLAXIS OR NON-THERAPEUTIC USE"/>
      <ItemData ItemOID="IT.CM.CMDOSE" Value="75"/>
      <ItemData ItemOID="IT.CM.CMDOSU" Value="mg"/>
      <ItemData ItemOID="IT.CM.CMROUTE" Value="ORAL"/>
      <ItemData ItemOID="IT.CM.EPOCH" Value="SCREENING"/>
      <ItemData ItemOID="IT.CM.CMSTDTC" Value="2013-02-18"/>
      <ItemData ItemOID="IT.CM.CMENDTC" Value="2013-05-10"/>
      <ItemData ItemOID="IT.CM.CMSTDY" Value="45"/>
      <ItemData ItemOID="IT.CM.CMENDY" Value="126"/>
    </ItemGroupData>
    <ItemGroupData ItemGroupOID="IG.CM" data:ItemGroupDataSeq="29">
      <ItemData ItemOID="IT.CM.STUDYID" Value="CDISCPILOT01"/>
      <ItemData ItemOID="IT.CM.DOMAIN" Value="CM"/>
      <ItemData ItemOID="IT.CM.USUBJID" Value="CDISC007"/>
      <ItemData ItemOID="IT.CM.CMSEQ" Value="5"/>
      <ItemData ItemOID="IT.CM.CMTRT" Value="PREDNISONE"/>
      <ItemData ItemOID="IT.CM.CMINDC" Value="PROPHYLAXIS OR NON-THERAPEUTIC USE"/>
      <ItemData ItemOID="IT.CM.CMDOSE" Value="20"/>
      <ItemData ItemOID="IT.CM.CMDOSU" Value="mg"/>
      <ItemData ItemOID="IT.CM.CMROUTE" Value="ORAL"/>
      <ItemData ItemOID="IT.CM.EPOCH" Value="SCREENING"/>
      <ItemData ItemOID="IT.CM.CMSTDTC" Value="2013-02-18"/>
      <ItemData ItemOID="IT.CM.CMENDTC" Value="2013-05-10"/>
      <ItemData ItemOID="IT.CM.CMSTDY" Value="45"/>
      <ItemData ItemOID="IT.CM.CMENDY" Value="126"/>
    </ItemGroupData>
    <ItemGroupData ItemGroupOID="IG.CM" data:ItemGroupDataSeq="30">
      <ItemData ItemOID="IT.CM.STUDYID" Value="CDISCPILOT01"/>
      <ItemData ItemOID="IT.CM.DOMAIN" Value="CM"/>
      <ItemData ItemOID="IT.CM.USUBJID" Value="CDISC007"/>
      <ItemData ItemOID="IT.CM.CMSEQ" Value="6"/>
      <ItemData ItemOID="IT.CM.CMTRT" Value="TEMOVATE"/>
      <ItemData ItemOID="IT.CM.CMINDC" Value="PROPHYLAXIS OR NON-THERAPEUTIC USE"/>
      <ItemData ItemOID="IT.CM.CMDOSE" Value="1"/>
      <ItemData ItemOID="IT.CM.CMDOSU" Value="TABLET"/>
      <ItemData ItemOID="IT.CM.CMROUTE" Value="TOPICAL"/>
      <ItemData ItemOID="IT.CM.EPOCH" Value="SCREENING"/>
      <ItemData ItemOID="IT.CM.CMSTDTC" Value="2013-02-18"/>
      <ItemData ItemOID="IT.CM.CMENDTC" Value="2013-02-20"/>
      <ItemData ItemOID="IT.CM.CMSTDY" Value="45"/>
      <ItemData ItemOID="IT.CM.CMENDY" Value="47"/>
    </ItemGroupData>
    <ItemGroupData ItemGroupOID="IG.CM" data:ItemGroupDataSeq="31">
      <ItemData ItemOID="IT.CM.STUDYID" Value="CDISCPILOT01"/>
      <ItemData ItemOID="IT.CM.DOMAIN" Value="CM"/>
      <ItemData ItemOID="IT.CM.USUBJID" Value="CDISC008"/>
      <ItemData ItemOID="IT.CM.CMSEQ" Value="1"/>
      <ItemData ItemOID="IT.CM.CMTRT" Value="ATROVENT"/>
      <ItemData ItemOID="IT.CM.CMINDC" Value="PROPHYLAXIS OR NON-THERAPEUTIC USE"/>
      <ItemData ItemOID="IT.CM.CMDOSE" Value="1"/>
      <ItemData ItemOID="IT.CM.CMDOSU" Value="TABLET"/>
      <ItemData ItemOID="IT.CM.CMROUTE" Value="RESPIRATORY (INHALATION)"/>
      <ItemData ItemOID="IT.CM.EPOCH" Value="SCREENING"/>
      <ItemData ItemOID="IT.CM.CMSTDTC" Value="2007"/>
      <ItemData ItemOID="IT.CM.CMENDTC" Value="2014-10-31"/>
      <ItemData ItemOID="IT.CM.CMENDY" Value="174"/>
    </ItemGroupData>
    <ItemGroupData ItemGroupOID="IG.CM" data:ItemGroupDataSeq="32">
      <ItemData ItemOID="IT.CM.STUDYID" Value="CDISCPILOT01"/>
      <ItemData ItemOID="IT.CM.DOMAIN" Value="CM"/>
      <ItemData ItemOID="IT.CM.USUBJID" Value="CDISC008"/>
      <ItemData ItemOID="IT.CM.CMSEQ" Value="2"/>
      <ItemData ItemOID="IT.CM.CMTRT" Value="VENTOLIN"/>
      <ItemData ItemOID="IT.CM.CMINDC" Value="PROPHYLAXIS OR NON-THERAPEUTIC USE"/>
      <ItemData ItemOID="IT.CM.CMDOSE" Value="1"/>
      <ItemData ItemOID="IT.CM.CMDOSU" Value="TABLET"/>
      <ItemData ItemOID="IT.CM.CMROUTE" Value="RESPIRATORY (INHALATION)"/>
      <ItemData ItemOID="IT.CM.EPOCH" Value="SCREENING"/>
      <ItemData ItemOID="IT.CM.CMSTDTC" Value="2007"/>
      <ItemData ItemOID="IT.CM.CMENDTC" Value="2014-10-31"/>
      <ItemData ItemOID="IT.CM.CMENDY" Value="174"/>
    </ItemGroupData>
    <ItemGroupData ItemGroupOID="IG.CM" data:ItemGroupDataSeq="33">
      <ItemData ItemOID="IT.CM.STUDYID" Value="CDISCPILOT01"/>
      <ItemData ItemOID="IT.CM.DOMAIN" Value="CM"/>
      <ItemData ItemOID="IT.CM.USUBJID" Value="CDISC008"/>
      <ItemData ItemOID="IT.CM.CMSEQ" Value="3"/>
      <ItemData ItemOID="IT.CM.CMTRT" Value="CARDURA"/>
      <ItemData ItemOID="IT.CM.CMINDC" Value="PROPHYLAXIS OR NON-THERAPEUTIC USE"/>
      <ItemData ItemOID="IT.CM.CMDOSE" Value="1"/>
      <ItemData ItemOID="IT.CM.CMDOSU" Value="TABLET"/>
      <ItemData ItemOID="IT.CM.CMROUTE" Value="ORAL"/>
      <ItemData ItemOID="IT.CM.EPOCH" Value="SCREENING"/>
      <ItemData ItemOID="IT.CM.CMSTDTC" Value="2012-09"/>
      <ItemData ItemOID="IT.CM.CMENDTC" Value="2014-10-31"/>
      <ItemData ItemOID="IT.CM.CMENDY" Value="174"/>
    </ItemGroupData>
    <ItemGroupData ItemGroupOID="IG.CM" data:ItemGroupDataSeq="34">
      <ItemData ItemOID="IT.CM.STUDYID" Value="CDISCPILOT01"/>
      <ItemData ItemOID="IT.CM.DOMAIN" Value="CM"/>
      <ItemData ItemOID="IT.CM.USUBJID" Value="CDISC008"/>
      <ItemData ItemOID="IT.CM.CMSEQ" Value="4"/>
      <ItemData ItemOID="IT.CM.CMTRT" Value="AEROBID"/>
      <ItemData ItemOID="IT.CM.CMINDC" Value="PROPHYLAXIS OR NON-THERAPEUTIC USE"/>
      <ItemData ItemOID="IT.CM.CMDOSE" Value="1"/>
      <ItemData ItemOID="IT.CM.CMDOSU" Value="TABLET"/>
      <ItemData ItemOID="IT.CM.CMROUTE" Value="RESPIRATORY (INHALATION)"/>
      <ItemData ItemOID="IT.CM.EPOCH" Value="SCREENING"/>
      <ItemData ItemOID="IT.CM.CMSTDTC" Value="2013-09"/>
      <ItemData ItemOID="IT.CM.CMENDTC" Value="2014-10-31"/>
      <ItemData ItemOID="IT.CM.CMENDY" Value="174"/>
    </ItemGroupData>
    <ItemGroupData ItemGroupOID="IG.CM" data:ItemGroupDataSeq="35">
      <ItemData ItemOID="IT.CM.STUDYID" Value="CDISCPILOT01"/>
      <ItemData ItemOID="IT.CM.DOMAIN" Value="CM"/>
      <ItemData ItemOID="IT.CM.USUBJID" Value="CDISC008"/>
      <ItemData ItemOID="IT.CM.CMSEQ" Value="5"/>
      <ItemData ItemOID="IT.CM.CMTRT" Value="VITAMIN E"/>
      <ItemData ItemOID="IT.CM.CMINDC" Value="PROPHYLAXIS OR NON-THERAPEUTIC USE"/>
      <ItemData ItemOID="IT.CM.CMDOSE" Value="400"/>
      <ItemData ItemOID="IT.CM.CMDOSU" Value="mg"/>
      <ItemData ItemOID="IT.CM.CMROUTE" Value="ORAL"/>
      <ItemData ItemOID="IT.CM.EPOCH" Value="SCREENING"/>
      <ItemData ItemOID="IT.CM.CMSTDTC" Value="2014-01"/>
      <ItemData ItemOID="IT.CM.CMENDTC" Value="2014-10-31"/>
      <ItemData ItemOID="IT.CM.CMENDY" Value="174"/>
    </ItemGroupData>
    <ItemGroupData ItemGroupOID="IG.CM" data:ItemGroupDataSeq="36">
      <ItemData ItemOID="IT.CM.STUDYID" Value="CDISCPILOT01"/>
      <ItemData ItemOID="IT.CM.DOMAIN" Value="CM"/>
      <ItemData ItemOID="IT.CM.USUBJID" Value="CDISC009"/>
      <ItemData ItemOID="IT.CM.CMSEQ" Value="1"/>
      <ItemData ItemOID="IT.CM.CMTRT" Value="TYLENOL"/>
      <ItemData ItemOID="IT.CM.CMINDC" Value="PROPHYLAXIS OR NON-THERAPEUTIC USE"/>
      <ItemData ItemOID="IT.CM.CMDOSE" Value="325"/>
      <ItemData ItemOID="IT.CM.CMDOSU" Value="mg"/>
      <ItemData ItemOID="IT.CM.CMROUTE" Value="ORAL"/>
      <ItemData ItemOID="IT.CM.EPOCH" Value="SCREENING"/>
      <ItemData ItemOID="IT.CM.CMSTDTC" Value="1996"/>
      <ItemData ItemOID="IT.CM.CMENRTPT" Value="ONGOING"/>
      <ItemData ItemOID="IT.CM.CMENTPT" Value="2013-04-28"/>
    </ItemGroupData>
    <ItemGroupData ItemGroupOID="IG.CM" data:ItemGroupDataSeq="37">
      <ItemData ItemOID="IT.CM.STUDYID" Value="CDISCPILOT01"/>
      <ItemData ItemOID="IT.CM.DOMAIN" Value="CM"/>
      <ItemData ItemOID="IT.CM.USUBJID" Value="CDISC009"/>
      <ItemData ItemOID="IT.CM.CMSEQ" Value="2"/>
      <ItemData ItemOID="IT.CM.CMTRT" Value="NORVASC"/>
      <ItemData ItemOID="IT.CM.CMINDC" Value="PROPHYLAXIS OR NON-THERAPEUTIC USE"/>
      <ItemData ItemOID="IT.CM.CMDOSE" Value="2.5"/>
      <ItemData ItemOID="IT.CM.CMDOSU" Value="mg"/>
      <ItemData ItemOID="IT.CM.CMROUTE" Value="ORAL"/>
      <ItemData ItemOID="IT.CM.EPOCH" Value="SCREENING"/>
      <ItemData ItemOID="IT.CM.CMSTDTC" Value="2010-07"/>
      <ItemData ItemOID="IT.CM.CMENRTPT" Value="ONGOING"/>
      <ItemData ItemOID="IT.CM.CMENTPT" Value="2013-04-28"/>
    </ItemGroupData>
    <ItemGroupData ItemGroupOID="IG.CM" data:ItemGroupDataSeq="38">
      <ItemData ItemOID="IT.CM.STUDYID" Value="CDISCPILOT01"/>
      <ItemData ItemOID="IT.CM.DOMAIN" Value="CM"/>
      <ItemData ItemOID="IT.CM.USUBJID" Value="CDISC009"/>
      <ItemData ItemOID="IT.CM.CMSEQ" Value="3"/>
      <ItemData ItemOID="IT.CM.CMTRT" Value="LORAZEPAM"/>
      <ItemData ItemOID="IT.CM.CMINDC" Value="PRIMARY STUDY CONDITION"/>
      <ItemData ItemOID="IT.CM.CMDOSE" Value="0.5"/>
      <ItemData ItemOID="IT.CM.CMDOSU" Value="mg"/>
      <ItemData ItemOID="IT.CM.CMROUTE" Value="ORAL"/>
      <ItemData ItemOID="IT.CM.EPOCH" Value="TREATMENT"/>
      <ItemData ItemOID="IT.CM.CMSTDTC" Value="2012-11-20"/>
      <ItemData ItemOID="IT.CM.CMENDTC" Value="2012-11-24"/>
      <ItemData ItemOID="IT.CM.CMSTDY" Value="30"/>
      <ItemData ItemOID="IT.CM.CMENDY" Value="34"/>
    </ItemGroupData>
    <ItemGroupData ItemGroupOID="IG.CM" data:ItemGroupDataSeq="39">
      <ItemData ItemOID="IT.CM.STUDYID" Value="CDISCPILOT01"/>
      <ItemData ItemOID="IT.CM.DOMAIN" Value="CM"/>
      <ItemData ItemOID="IT.CM.USUBJID" Value="CDISC010"/>
      <ItemData ItemOID="IT.CM.CMSEQ" Value="1"/>
      <ItemData ItemOID="IT.CM.CMTRT" Value="MECLIZINE"/>
      <ItemData ItemOID="IT.CM.CMINDC" Value="PROPHYLAXIS OR NON-THERAPEUTIC USE"/>
      <ItemData ItemOID="IT.CM.CMDOSE" Value="25"/>
      <ItemData ItemOID="IT.CM.CMDOSU" Value="mg"/>
      <ItemData ItemOID="IT.CM.CMROUTE" Value="ORAL"/>
      <ItemData ItemOID="IT.CM.EPOCH" Value="SCREENING"/>
      <ItemData ItemOID="IT.CM.CMSTDTC" Value="1983"/>
      <ItemData ItemOID="IT.CM.CMENDTC" Value="2013-09-08"/>
      <ItemData ItemOID="IT.CM.CMENDY" Value="-13"/>
    </ItemGroupData>
    <ItemGroupData ItemGroupOID="IG.CM" data:ItemGroupDataSeq="40">
      <ItemData ItemOID="IT.CM.STUDYID" Value="CDISCPILOT01"/>
      <ItemData ItemOID="IT.CM.DOMAIN" Value="CM"/>
      <ItemData ItemOID="IT.CM.USUBJID" Value="CDISC010"/>
      <ItemData ItemOID="IT.CM.CMSEQ" Value="2"/>
      <ItemData ItemOID="IT.CM.CMTRT" Value="CAPOTEN"/>
      <ItemData ItemOID="IT.CM.CMINDC" Value="PROPHYLAXIS OR NON-THERAPEUTIC USE"/>
      <ItemData ItemOID="IT.CM.CMDOSE" Value="50"/>
      <ItemData ItemOID="IT.CM.CMDOSU" Value="mg"/>
      <ItemData ItemOID="IT.CM.CMROUTE" Value="ORAL"/>
      <ItemData ItemOID="IT.CM.EPOCH" Value="SCREENING"/>
      <ItemData ItemOID="IT.CM.CMSTDTC" Value="1998"/>
      <ItemData ItemOID="IT.CM.CMENDTC" Value="2013-09-15"/>
      <ItemData ItemOID="IT.CM.CMENDY" Value="-6"/>
    </ItemGroupData>
    <ItemGroupData ItemGroupOID="IG.CM" data:ItemGroupDataSeq="41">
      <ItemData ItemOID="IT.CM.STUDYID" Value="CDISCPILOT01"/>
      <ItemData ItemOID="IT.CM.DOMAIN" Value="CM"/>
      <ItemData ItemOID="IT.CM.USUBJID" Value="CDISC010"/>
      <ItemData ItemOID="IT.CM.CMSEQ" Value="3"/>
      <ItemData ItemOID="IT.CM.CMTRT" Value="POTASSIUM"/>
      <ItemData ItemOID="IT.CM.CMINDC" Value="PROPHYLAXIS OR NON-THERAPEUTIC USE"/>
      <ItemData ItemOID="IT.CM.CMDOSE" Value="1"/>
      <ItemData ItemOID="IT.CM.CMDOSU" Value="TABLET"/>
      <ItemData ItemOID="IT.CM.CMROUTE" Value="ORAL"/>
      <ItemData ItemOID="IT.CM.EPOCH" Value="SCREENING"/>
      <ItemData ItemOID="IT.CM.CMSTDTC" Value="1998"/>
      <ItemData ItemOID="IT.CM.CMENRTPT" Value="ONGOING"/>
      <ItemData ItemOID="IT.CM.CMENTPT" Value="2013-09-26"/>
    </ItemGroupData>
    <ItemGroupData ItemGroupOID="IG.CM" data:ItemGroupDataSeq="42">
      <ItemData ItemOID="IT.CM.STUDYID" Value="CDISCPILOT01"/>
      <ItemData ItemOID="IT.CM.DOMAIN" Value="CM"/>
      <ItemData ItemOID="IT.CM.USUBJID" Value="CDISC010"/>
      <ItemData ItemOID="IT.CM.CMSEQ" Value="4"/>
      <ItemData ItemOID="IT.CM.CMTRT" Value="PRILOSEC"/>
      <ItemData ItemOID="IT.CM.CMINDC" Value="PROPHYLAXIS OR NON-THERAPEUTIC USE"/>
      <ItemData ItemOID="IT.CM.CMDOSE" Value="20"/>
      <ItemData ItemOID="IT.CM.CMDOSU" Value="mg"/>
      <ItemData ItemOID="IT.CM.CMROUTE" Value="ORAL"/>
      <ItemData ItemOID="IT.CM.EPOCH" Value="SCREENING"/>
      <ItemData ItemOID="IT.CM.CMSTDTC" Value="2009"/>
      <ItemData ItemOID="IT.CM.CMENRTPT" Value="ONGOING"/>
      <ItemData ItemOID="IT.CM.CMENTPT" Value="2013-09-26"/>
    </ItemGroupData>
    <ItemGroupData ItemGroupOID="IG.CM" data:ItemGroupDataSeq="43">
      <ItemData ItemOID="IT.CM.STUDYID" Value="CDISCPILOT01"/>
      <ItemData ItemOID="IT.CM.DOMAIN" Value="CM"/>
      <ItemData ItemOID="IT.CM.USUBJID" Value="CDISC010"/>
      <ItemData ItemOID="IT.CM.CMSEQ" Value="5"/>
      <ItemData ItemOID="IT.CM.CMTRT" Value="PROPULSID"/>
      <ItemData ItemOID="IT.CM.CMINDC" Value="PROPHYLAXIS OR NON-THERAPEUTIC USE"/>
      <ItemData ItemOID="IT.CM.CMDOSE" Value="10"/>
      <ItemData ItemOID="IT.CM.CMDOSU" Value="mg"/>
      <ItemData ItemOID="IT.CM.CMROUTE" Value="ORAL"/>
      <ItemData ItemOID="IT.CM.EPOCH" Value="SCREENING"/>
      <ItemData ItemOID="IT.CM.CMSTDTC" Value="2009"/>
      <ItemData ItemOID="IT.CM.CMENRTPT" Value="ONGOING"/>
      <ItemData ItemOID="IT.CM.CMENTPT" Value="2013-09-26"/>
    </ItemGroupData>
    <ItemGroupData ItemGroupOID="IG.CM" data:ItemGroupDataSeq="44">
      <ItemData ItemOID="IT.CM.STUDYID" Value="CDISCPILOT01"/>
      <ItemData ItemOID="IT.CM.DOMAIN" Value="CM"/>
      <ItemData ItemOID="IT.CM.USUBJID" Value="CDISC010"/>
      <ItemData ItemOID="IT.CM.CMSEQ" Value="6"/>
      <ItemData ItemOID="IT.CM.CMTRT" Value="LANOXIN"/>
      <ItemData ItemOID="IT.CM.CMINDC" Value="PROPHYLAXIS OR NON-THERAPEUTIC USE"/>
      <ItemData ItemOID="IT.CM.CMDOSE" Value="0.05"/>
      <ItemData ItemOID="IT.CM.CMDOSU" Value="mg"/>
      <ItemData ItemOID="IT.CM.CMROUTE" Value="ORAL"/>
      <ItemData ItemOID="IT.CM.EPOCH" Value="SCREENING"/>
      <ItemData ItemOID="IT.CM.CMSTDTC" Value="2011-06"/>
      <ItemData ItemOID="IT.CM.CMENRTPT" Value="ONGOING"/>
      <ItemData ItemOID="IT.CM.CMENTPT" Value="2013-09-26"/>
    </ItemGroupData>
    <ItemGroupData ItemGroupOID="IG.CM" data:ItemGroupDataSeq="45">
      <ItemData ItemOID="IT.CM.STUDYID" Value="CDISCPILOT01"/>
      <ItemData ItemOID="IT.CM.DOMAIN" Value="CM"/>
      <ItemData ItemOID="IT.CM.USUBJID" Value="CDISC010"/>
      <ItemData ItemOID="IT.CM.CMSEQ" Value="7"/>
      <ItemData ItemOID="IT.CM.CMTRT" Value="ZESTORETIC"/>
      <ItemData ItemOID="IT.CM.CMINDC" Value="PROPHYLAXIS OR NON-THERAPEUTIC USE"/>
      <ItemData ItemOID="IT.CM.CMDOSE" Value="1"/>
      <ItemData ItemOID="IT.CM.CMDOSU" Value="TABLET"/>
      <ItemData ItemOID="IT.CM.CMROUTE" Value="ORAL"/>
      <ItemData ItemOID="IT.CM.EPOCH" Value="SCREENING"/>
      <ItemData ItemOID="IT.CM.CMSTDTC" Value="2013-09-15"/>
      <ItemData ItemOID="IT.CM.CMSTDY" Value="-6"/>
      <ItemData ItemOID="IT.CM.CMENRTPT" Value="ONGOING"/>
      <ItemData ItemOID="IT.CM.CMENTPT" Value="2013-09-26"/>
    </ItemGroupData>
    <ItemGroupData ItemGroupOID="IG.CM" data:ItemGroupDataSeq="46">
      <ItemData ItemOID="IT.CM.STUDYID" Value="CDISCPILOT01"/>
      <ItemData ItemOID="IT.CM.DOMAIN" Value="CM"/>
      <ItemData ItemOID="IT.CM.USUBJID" Value="CDISC011"/>
      <ItemData ItemOID="IT.CM.CMSEQ" Value="1"/>
      <ItemData ItemOID="IT.CM.CMTRT" Value="MOTRIN"/>
      <ItemData ItemOID="IT.CM.CMINDC" Value="PROPHYLAXIS OR NON-THERAPEUTIC USE"/>
      <ItemData ItemOID="IT.CM.CMDOSE" Value="400"/>
      <ItemData ItemOID="IT.CM.CMDOSU" Value="mg"/>
      <ItemData ItemOID="IT.CM.CMROUTE" Value="ORAL"/>
      <ItemData ItemOID="IT.CM.EPOCH" Value="SCREENING"/>
      <ItemData ItemOID="IT.CM.CMSTDTC" Value="1998-10"/>
      <ItemData ItemOID="IT.CM.CMENDTC" Value="2013-06-05"/>
      <ItemData ItemOID="IT.CM.CMENDY" Value="181"/>
    </ItemGroupData>
    <ItemGroupData ItemGroupOID="IG.CM" data:ItemGroupDataSeq="47">
      <ItemData ItemOID="IT.CM.STUDYID" Value="CDISCPILOT01"/>
      <ItemData ItemOID="IT.CM.DOMAIN" Value="CM"/>
      <ItemData ItemOID="IT.CM.USUBJID" Value="CDISC011"/>
      <ItemData ItemOID="IT.CM.CMSEQ" Value="2"/>
      <ItemData ItemOID="IT.CM.CMTRT" Value="PRINIVIL"/>
      <ItemData ItemOID="IT.CM.CMINDC" Value="PROPHYLAXIS OR NON-THERAPEUTIC USE"/>
      <ItemData ItemOID="IT.CM.CMDOSE" Value="10"/>
      <ItemData ItemOID="IT.CM.CMDOSU" Value="mg"/>
      <ItemData ItemOID="IT.CM.CMROUTE" Value="ORAL"/>
      <ItemData ItemOID="IT.CM.EPOCH" Value="SCREENING"/>
      <ItemData ItemOID="IT.CM.CMSTDTC" Value="2011-07-15"/>
      <ItemData ItemOID="IT.CM.CMENDTC" Value="2013-06-05"/>
      <ItemData ItemOID="IT.CM.CMSTDY" Value="-511"/>
      <ItemData ItemOID="IT.CM.CMENDY" Value="181"/>
    </ItemGroupData>
    <ItemGroupData ItemGroupOID="IG.CM" data:ItemGroupDataSeq="48">
      <ItemData ItemOID="IT.CM.STUDYID" Value="CDISCPILOT01"/>
      <ItemData ItemOID="IT.CM.DOMAIN" Value="CM"/>
      <ItemData ItemOID="IT.CM.USUBJID" Value="CDISC011"/>
      <ItemData ItemOID="IT.CM.CMSEQ" Value="3"/>
      <ItemData ItemOID="IT.CM.CMTRT" Value="HYDROCORTISONE, TOPICAL"/>
      <ItemData ItemOID="IT.CM.CMINDC" Value="PROPHYLAXIS OR NON-THERAPEUTIC USE"/>
      <ItemData ItemOID="IT.CM.CMDOSE" Value="1"/>
      <ItemData ItemOID="IT.CM.CMDOSU" Value="TABLET"/>
      <ItemData ItemOID="IT.CM.CMROUTE" Value="TRANSDERMAL"/>
      <ItemData ItemOID="IT.CM.EPOCH" Value="SCREENING"/>
      <ItemData ItemOID="IT.CM.CMSTDTC" Value="2013-04-10"/>
      <ItemData ItemOID="IT.CM.CMENDTC" Value="2013-06-05"/>
      <ItemData ItemOID="IT.CM.CMSTDY" Value="125"/>
      <ItemData ItemOID="IT.CM.CMENDY" Value="181"/>
    </ItemGroupData>
    <ItemGroupData ItemGroupOID="IG.CM" data:ItemGroupDataSeq="49">
      <ItemData ItemOID="IT.CM.STUDYID" Value="CDISCPILOT01"/>
      <ItemData ItemOID="IT.CM.DOMAIN" Value="CM"/>
      <ItemData ItemOID="IT.CM.USUBJID" Value="CDISC011"/>
      <ItemData ItemOID="IT.CM.CMSEQ" Value="4"/>
      <ItemData ItemOID="IT.CM.CMTRT" Value="CALAMINE LOTION"/>
      <ItemData ItemOID="IT.CM.CMINDC" Value="PROPHYLAXIS OR NON-THERAPEUTIC USE"/>
      <ItemData ItemOID="IT.CM.CMDOSU" Value="ng"/>
      <ItemData ItemOID="IT.CM.CMROUTE" Value="TRANSDERMAL"/>
      <ItemData ItemOID="IT.CM.EPOCH" Value="SCREENING"/>
      <ItemData ItemOID="IT.CM.CMSTDTC" Value="2013-04-23"/>
      <ItemData ItemOID="IT.CM.CMENDTC" Value="2013-06-05"/>
      <ItemData ItemOID="IT.CM.CMSTDY" Value="138"/>
      <ItemData ItemOID="IT.CM.CMENDY" Value="181"/>
    </ItemGroupData>
    <ItemGroupData ItemGroupOID="IG.CM" data:ItemGroupDataSeq="50">
      <ItemData ItemOID="IT.CM.STUDYID" Value="CDISCPILOT01"/>
      <ItemData ItemOID="IT.CM.DOMAIN" Value="CM"/>
      <ItemData ItemOID="IT.CM.USUBJID" Value="CDISC014"/>
      <ItemData ItemOID="IT.CM.CMSEQ" Value="1"/>
      <ItemData ItemOID="IT.CM.CMTRT" Value="ASPIRIN"/>
      <ItemData ItemOID="IT.CM.CMINDC" Value="PROPHYLAXIS OR NON-THERAPEUTIC USE"/>
      <ItemData ItemOID="IT.CM.CMDOSE" Value="325"/>
      <ItemData ItemOID="IT.CM.CMDOSU" Value="mg"/>
      <ItemData ItemOID="IT.CM.CMROUTE" Value="ORAL"/>
      <ItemData ItemOID="IT.CM.EPOCH" Value="SCREENING"/>
      <ItemData ItemOID="IT.CM.CMSTDTC" Value="2012-07"/>
      <ItemData ItemOID="IT.CM.CMENRTPT" Value="ONGOING"/>
      <ItemData ItemOID="IT.CM.CMENTPT" Value="2013-09-18"/>
    </ItemGroupData>
    <ItemGroupData ItemGroupOID="IG.CM" data:ItemGroupDataSeq="51">
      <ItemData ItemOID="IT.CM.STUDYID" Value="CDISCPILOT01"/>
      <ItemData ItemOID="IT.CM.DOMAIN" Value="CM"/>
      <ItemData ItemOID="IT.CM.USUBJID" Value="CDISC014"/>
      <ItemData ItemOID="IT.CM.CMSEQ" Value="2"/>
      <ItemData ItemOID="IT.CM.CMTRT" Value="DYAZIDE"/>
      <ItemData ItemOID="IT.CM.CMINDC" Value="PROPHYLAXIS OR NON-THERAPEUTIC USE"/>
      <ItemData ItemOID="IT.CM.CMDOSE" Value="37.5"/>
      <ItemData ItemOID="IT.CM.CMDOSU" Value="mg"/>
      <ItemData ItemOID="IT.CM.CMROUTE" Value="ORAL"/>
      <ItemData ItemOID="IT.CM.EPOCH" Value="SCREENING"/>
      <ItemData ItemOID="IT.CM.CMSTDTC" Value="2013-03-02"/>
      <ItemData ItemOID="IT.CM.CMSTDY" Value="-32"/>
      <ItemData ItemOID="IT.CM.CMENRTPT" Value="ONGOING"/>
      <ItemData ItemOID="IT.CM.CMENTPT" Value="2013-09-18"/>
    </ItemGroupData>
    <ItemGroupData ItemGroupOID="IG.CM" data:ItemGroupDataSeq="52">
      <ItemData ItemOID="IT.CM.STUDYID" Value="CDISCPILOT01"/>
      <ItemData ItemOID="IT.CM.DOMAIN" Value="CM"/>
      <ItemData ItemOID="IT.CM.USUBJID" Value="CDISC014"/>
      <ItemData ItemOID="IT.CM.CMSEQ" Value="3"/>
      <ItemData ItemOID="IT.CM.CMTRT" Value="TYLENOL"/>
      <ItemData ItemOID="IT.CM.CMINDC" Value="PROPHYLAXIS OR NON-THERAPEUTIC USE"/>
      <ItemData ItemOID="IT.CM.CMDOSE" Value="325"/>
      <ItemData ItemOID="IT.CM.CMDOSU" Value="mg"/>
      <ItemData ItemOID="IT.CM.CMROUTE" Value="ORAL"/>
      <ItemData ItemOID="IT.CM.EPOCH" Value="SCREENING"/>
      <ItemData ItemOID="IT.CM.CMSTDTC" Value="2013-04-01"/>
      <ItemData ItemOID="IT.CM.CMENDTC" Value="2013-04-15"/>
      <ItemData ItemOID="IT.CM.CMSTDY" Value="-2"/>
      <ItemData ItemOID="IT.CM.CMENDY" Value="13"/>
    </ItemGroupData>
    <ItemGroupData ItemGroupOID="IG.CM" data:ItemGroupDataSeq="53">
      <ItemData ItemOID="IT.CM.STUDYID" Value="CDISCPILOT01"/>
      <ItemData ItemOID="IT.CM.DOMAIN" Value="CM"/>
      <ItemData ItemOID="IT.CM.USUBJID" Value="CDISC014"/>
      <ItemData ItemOID="IT.CM.CMSEQ" Value="4"/>
      <ItemData ItemOID="IT.CM.CMTRT" Value="AMOXICILLIN"/>
      <ItemData ItemOID="IT.CM.CMINDC" Value="PROPHYLAXIS OR NON-THERAPEUTIC USE"/>
      <ItemData ItemOID="IT.CM.CMDOSE" Value="500"/>
      <ItemData ItemOID="IT.CM.CMDOSU" Value="mg"/>
      <ItemData ItemOID="IT.CM.CMROUTE" Value="ORAL"/>
      <ItemData ItemOID="IT.CM.EPOCH" Value="SCREENING"/>
      <ItemData ItemOID="IT.CM.CMSTDTC" Value="2013-05-01"/>
      <ItemData ItemOID="IT.CM.CMSTDY" Value="29"/>
      <ItemData ItemOID="IT.CM.CMENRTPT" Value="ONGOING"/>
      <ItemData ItemOID="IT.CM.CMENTPT" Value="2013-09-18"/>
    </ItemGroupData>
    <ItemGroupData ItemGroupOID="IG.CM" data:ItemGroupDataSeq="54">
      <ItemData ItemOID="IT.CM.STUDYID" Value="CDISCPILOT01"/>
      <ItemData ItemOID="IT.CM.DOMAIN" Value="CM"/>
      <ItemData ItemOID="IT.CM.USUBJID" Value="CDISC014"/>
      <ItemData ItemOID="IT.CM.CMSEQ" Value="5"/>
      <ItemData ItemOID="IT.CM.CMTRT" Value="BENZONATATE"/>
      <ItemData ItemOID="IT.CM.CMINDC" Value="PROPHYLAXIS OR NON-THERAPEUTIC USE"/>
      <ItemData ItemOID="IT.CM.CMDOSE" Value="100"/>
      <ItemData ItemOID="IT.CM.CMDOSU" Value="mg"/>
      <ItemData ItemOID="IT.CM.CMROUTE" Value="ORAL"/>
      <ItemData ItemOID="IT.CM.EPOCH" Value="SCREENING"/>
      <ItemData ItemOID="IT.CM.CMSTDTC" Value="2013-05-01"/>
      <ItemData ItemOID="IT.CM.CMSTDY" Value="29"/>
      <ItemData ItemOID="IT.CM.CMENRTPT" Value="ONGOING"/>
      <ItemData ItemOID="IT.CM.CMENTPT" Value="2013-09-18"/>
    </ItemGroupData>
    <ItemGroupData ItemGroupOID="IG.CM" data:ItemGroupDataSeq="55">
      <ItemData ItemOID="IT.CM.STUDYID" Value="CDISCPILOT01"/>
      <ItemData ItemOID="IT.CM.DOMAIN" Value="CM"/>
      <ItemData ItemOID="IT.CM.USUBJID" Value="CDISC016"/>
      <ItemData ItemOID="IT.CM.CMSEQ" Value="1"/>
      <ItemData ItemOID="IT.CM.CMTRT" Value="PREMARIN"/>
      <ItemData ItemOID="IT.CM.CMINDC" Value="PROPHYLAXIS OR NON-THERAPEUTIC USE"/>
      <ItemData ItemOID="IT.CM.CMDOSE" Value="0.625"/>
      <ItemData ItemOID="IT.CM.CMDOSU" Value="mg"/>
      <ItemData ItemOID="IT.CM.CMROUTE" Value="ORAL"/>
      <ItemData ItemOID="IT.CM.EPOCH" Value="SCREENING"/>
      <ItemData ItemOID="IT.CM.CMSTDTC" Value="1989"/>
      <ItemData ItemOID="IT.CM.CMENRTPT" Value="ONGOING"/>
      <ItemData ItemOID="IT.CM.CMENTPT" Value="2013-09-22"/>
    </ItemGroupData>
    <ItemGroupData ItemGroupOID="IG.CM" data:ItemGroupDataSeq="56">
      <ItemData ItemOID="IT.CM.STUDYID" Value="CDISCPILOT01"/>
      <ItemData ItemOID="IT.CM.DOMAIN" Value="CM"/>
      <ItemData ItemOID="IT.CM.USUBJID" Value="CDISC016"/>
      <ItemData ItemOID="IT.CM.CMSEQ" Value="2"/>
      <ItemData ItemOID="IT.CM.CMTRT" Value="SYNTHROID"/>
      <ItemData ItemOID="IT.CM.CMINDC" Value="PROPHYLAXIS OR NON-THERAPEUTIC USE"/>
      <ItemData ItemOID="IT.CM.CMDOSE" Value="0.15"/>
      <ItemData ItemOID="IT.CM.CMDOSU" Value="mg"/>
      <ItemData ItemOID="IT.CM.CMROUTE" Value="ORAL"/>
      <ItemData ItemOID="IT.CM.EPOCH" Value="SCREENING"/>
      <ItemData ItemOID="IT.CM.CMSTDTC" Value="2009-03-03"/>
      <ItemData ItemOID="IT.CM.CMENDTC" Value="2013-05-20"/>
      <ItemData ItemOID="IT.CM.CMSTDY" Value="-1492"/>
      <ItemData ItemOID="IT.CM.CMENDY" Value="48"/>
    </ItemGroupData>
    <ItemGroupData ItemGroupOID="IG.CM" data:ItemGroupDataSeq="57">
      <ItemData ItemOID="IT.CM.STUDYID" Value="CDISCPILOT01"/>
      <ItemData ItemOID="IT.CM.DOMAIN" Value="CM"/>
      <ItemData ItemOID="IT.CM.USUBJID" Value="CDISC016"/>
      <ItemData ItemOID="IT.CM.CMSEQ" Value="3"/>
      <ItemData ItemOID="IT.CM.CMTRT" Value="ROBITUSSIN"/>
      <ItemData ItemOID="IT.CM.CMINDC" Value="PROPHYLAXIS OR NON-THERAPEUTIC USE"/>
      <ItemData ItemOID="IT.CM.CMDOSE" Value="2"/>
      <ItemData ItemOID="IT.CM.CMDOSU" Value="TABLET"/>
      <ItemData ItemOID="IT.CM.CMROUTE" Value="ORAL"/>
      <ItemData ItemOID="IT.CM.EPOCH" Value="TREATMENT"/>
      <ItemData ItemOID="IT.CM.CMSTDTC" Value="2013-04-28"/>
      <ItemData ItemOID="IT.CM.CMENDTC" Value="2013-05-04"/>
      <ItemData ItemOID="IT.CM.CMSTDY" Value="26"/>
      <ItemData ItemOID="IT.CM.CMENDY" Value="32"/>
    </ItemGroupData>
    <ItemGroupData ItemGroupOID="IG.CM" data:ItemGroupDataSeq="58">
      <ItemData ItemOID="IT.CM.STUDYID" Value="CDISCPILOT01"/>
      <ItemData ItemOID="IT.CM.DOMAIN" Value="CM"/>
      <ItemData ItemOID="IT.CM.USUBJID" Value="CDISC016"/>
      <ItemData ItemOID="IT.CM.CMSEQ" Value="4"/>
      <ItemData ItemOID="IT.CM.CMTRT" Value="ARMOUR THYROID"/>
      <ItemData ItemOID="IT.CM.CMINDC" Value="PROPHYLAXIS OR NON-THERAPEUTIC USE"/>
      <ItemData ItemOID="IT.CM.CMDOSE" Value="2"/>
      <ItemData ItemOID="IT.CM.CMDOSU" Value="TABLET"/>
      <ItemData ItemOID="IT.CM.CMROUTE" Value="ORAL"/>
      <ItemData ItemOID="IT.CM.EPOCH" Value="SCREENING"/>
      <ItemData ItemOID="IT.CM.CMSTDTC" Value="2013-05-21"/>
      <ItemData ItemOID="IT.CM.CMSTDY" Value="49"/>
      <ItemData ItemOID="IT.CM.CMENRTPT" Value="ONGOING"/>
      <ItemData ItemOID="IT.CM.CMENTPT" Value="2013-09-22"/>
    </ItemGroupData>
    <ItemGroupData ItemGroupOID="IG.CM" data:ItemGroupDataSeq="59">
      <ItemData ItemOID="IT.CM.STUDYID" Value="CDISCPILOT01"/>
      <ItemData ItemOID="IT.CM.DOMAIN" Value="CM"/>
      <ItemData ItemOID="IT.CM.USUBJID" Value="CDISC017"/>
      <ItemData ItemOID="IT.CM.CMSEQ" Value="1"/>
      <ItemData ItemOID="IT.CM.CMTRT" Value="ACETAMINOPHEN"/>
      <ItemData ItemOID="IT.CM.CMINDC" Value="PROPHYLAXIS OR NON-THERAPEUTIC USE"/>
      <ItemData ItemOID="IT.CM.CMDOSE" Value="2"/>
      <ItemData ItemOID="IT.CM.CMDOSU" Value="TABLET"/>
      <ItemData ItemOID="IT.CM.CMROUTE" Value="ORAL"/>
      <ItemData ItemOID="IT.CM.EPOCH" Value="SCREENING"/>
      <ItemData ItemOID="IT.CM.CMSTDTC" Value="2008"/>
      <ItemData ItemOID="IT.CM.CMENRTPT" Value="ONGOING"/>
      <ItemData ItemOID="IT.CM.CMENTPT" Value="2014-03-08"/>
    </ItemGroupData>
    <ItemGroupData ItemGroupOID="IG.CM" data:ItemGroupDataSeq="60">
      <ItemData ItemOID="IT.CM.STUDYID" Value="CDISCPILOT01"/>
      <ItemData ItemOID="IT.CM.DOMAIN" Value="CM"/>
      <ItemData ItemOID="IT.CM.USUBJID" Value="CDISC017"/>
      <ItemData ItemOID="IT.CM.CMSEQ" Value="2"/>
      <ItemData ItemOID="IT.CM.CMTRT" Value="MULTIVITAMIN"/>
      <ItemData ItemOID="IT.CM.CMINDC" Value="PROPHYLAXIS OR NON-THERAPEUTIC USE"/>
      <ItemData ItemOID="IT.CM.CMDOSE" Value="1"/>
      <ItemData ItemOID="IT.CM.CMDOSU" Value="TABLET"/>
      <ItemData ItemOID="IT.CM.CMROUTE" Value="ORAL"/>
      <ItemData ItemOID="IT.CM.EPOCH" Value="SCREENING"/>
      <ItemData ItemOID="IT.CM.CMSTDTC" Value="2011-08"/>
      <ItemData ItemOID="IT.CM.CMENRTPT" Value="ONGOING"/>
      <ItemData ItemOID="IT.CM.CMENTPT" Value="2014-03-08"/>
    </ItemGroupData>
    <ItemGroupData ItemGroupOID="IG.CM" data:ItemGroupDataSeq="61">
      <ItemData ItemOID="IT.CM.STUDYID" Value="CDISCPILOT01"/>
      <ItemData ItemOID="IT.CM.DOMAIN" Value="CM"/>
      <ItemData ItemOID="IT.CM.USUBJID" Value="CDISC017"/>
      <ItemData ItemOID="IT.CM.CMSEQ" Value="3"/>
      <ItemData ItemOID="IT.CM.CMTRT" Value="VITAMIN E"/>
      <ItemData ItemOID="IT.CM.CMINDC" Value="PROPHYLAXIS OR NON-THERAPEUTIC USE"/>
      <ItemData ItemOID="IT.CM.CMDOSE" Value="400"/>
      <ItemData ItemOID="IT.CM.CMDOSU" Value="mg"/>
      <ItemData ItemOID="IT.CM.CMROUTE" Value="ORAL"/>
      <ItemData ItemOID="IT.CM.EPOCH" Value="SCREENING"/>
      <ItemData ItemOID="IT.CM.CMSTDTC" Value="2011-08"/>
      <ItemData ItemOID="IT.CM.CMENRTPT" Value="ONGOING"/>
      <ItemData ItemOID="IT.CM.CMENTPT" Value="2014-03-08"/>
    </ItemGroupData>
    <ItemGroupData ItemGroupOID="IG.CM" data:ItemGroupDataSeq="62">
      <ItemData ItemOID="IT.CM.STUDYID" Value="CDISCPILOT01"/>
      <ItemData ItemOID="IT.CM.DOMAIN" Value="CM"/>
      <ItemData ItemOID="IT.CM.USUBJID" Value="CDISC017"/>
      <ItemData ItemOID="IT.CM.CMSEQ" Value="4"/>
      <ItemData ItemOID="IT.CM.CMTRT" Value="CALAMINE LOTION"/>
      <ItemData ItemOID="IT.CM.CMINDC" Value="PROPHYLAXIS OR NON-THERAPEUTIC USE"/>
      <ItemData ItemOID="IT.CM.CMROUTE" Value="TOPICAL"/>
      <ItemData ItemOID="IT.CM.EPOCH" Value="TREATMENT"/>
      <ItemData ItemOID="IT.CM.CMSTDTC" Value="2013-12-29"/>
      <ItemData ItemOID="IT.CM.CMENDTC" Value="2014-02-01"/>
      <ItemData ItemOID="IT.CM.CMSTDY" Value="100"/>
      <ItemData ItemOID="IT.CM.CMENDY" Value="134"/>
    </ItemGroupData>
    <ItemGroupData ItemGroupOID="IG.CM" data:ItemGroupDataSeq="63">
      <ItemData ItemOID="IT.CM.STUDYID" Value="CDISCPILOT01"/>
      <ItemData ItemOID="IT.CM.DOMAIN" Value="CM"/>
      <ItemData ItemOID="IT.CM.USUBJID" Value="CDISC017"/>
      <ItemData ItemOID="IT.CM.CMSEQ" Value="5"/>
      <ItemData ItemOID="IT.CM.CMTRT" Value="CORTISONE"/>
      <ItemData ItemOID="IT.CM.CMINDC" Value="PROPHYLAXIS OR NON-THERAPEUTIC USE"/>
      <ItemData ItemOID="IT.CM.CMROUTE" Value="TOPICAL"/>
      <ItemData ItemOID="IT.CM.EPOCH" Value="TREATMENT"/>
      <ItemData ItemOID="IT.CM.CMSTDTC" Value="2013-12-29"/>
      <ItemData ItemOID="IT.CM.CMENDTC" Value="2014-02-01"/>
      <ItemData ItemOID="IT.CM.CMSTDY" Value="100"/>
      <ItemData ItemOID="IT.CM.CMENDY" Value="134"/>
    </ItemGroupData>
    <ItemGroupData ItemGroupOID="IG.CM" data:ItemGroupDataSeq="64">
      <ItemData ItemOID="IT.CM.STUDYID" Value="CDISCPILOT01"/>
      <ItemData ItemOID="IT.CM.DOMAIN" Value="CM"/>
      <ItemData ItemOID="IT.CM.USUBJID" Value="CDISC018"/>
      <ItemData ItemOID="IT.CM.CMSEQ" Value="1"/>
      <ItemData ItemOID="IT.CM.CMTRT" Value="MULTIVITAMINS"/>
      <ItemData ItemOID="IT.CM.CMINDC" Value="PROPHYLAXIS OR NON-THERAPEUTIC USE"/>
      <ItemData ItemOID="IT.CM.CMDOSE" Value="1"/>
      <ItemData ItemOID="IT.CM.CMDOSU" Value="TABLET"/>
      <ItemData ItemOID="IT.CM.CMROUTE" Value="ORAL"/>
      <ItemData ItemOID="IT.CM.EPOCH" Value="SCREENING"/>
      <ItemData ItemOID="IT.CM.CMSTDTC" Value="2002-08"/>
      <ItemData ItemOID="IT.CM.CMENRTPT" Value="ONGOING"/>
      <ItemData ItemOID="IT.CM.CMENTPT" Value="2013-06-03"/>
    </ItemGroupData>
    <ItemGroupData ItemGroupOID="IG.CM" data:ItemGroupDataSeq="65">
      <ItemData ItemOID="IT.CM.STUDYID" Value="CDISCPILOT01"/>
      <ItemData ItemOID="IT.CM.DOMAIN" Value="CM"/>
      <ItemData ItemOID="IT.CM.USUBJID" Value="CDISC018"/>
      <ItemData ItemOID="IT.CM.CMSEQ" Value="2"/>
      <ItemData ItemOID="IT.CM.CMTRT" Value="ADVIL"/>
      <ItemData ItemOID="IT.CM.CMINDC" Value="PROPHYLAXIS OR NON-THERAPEUTIC USE"/>
      <ItemData ItemOID="IT.CM.CMDOSE" Value="400"/>
      <ItemData ItemOID="IT.CM.CMDOSU" Value="mg"/>
      <ItemData ItemOID="IT.CM.CMROUTE" Value="ORAL"/>
      <ItemData ItemOID="IT.CM.EPOCH" Value="TREATMENT"/>
      <ItemData ItemOID="IT.CM.CMSTDTC" Value="2012-12-30"/>
      <ItemData ItemOID="IT.CM.CMENDTC" Value="2012-12-30"/>
      <ItemData ItemOID="IT.CM.CMSTDY" Value="14"/>
      <ItemData ItemOID="IT.CM.CMENDY" Value="14"/>
    </ItemGroupData>
    <ItemGroupData ItemGroupOID="IG.CM" data:ItemGroupDataSeq="66">
      <ItemData ItemOID="IT.CM.STUDYID" Value="CDISCPILOT01"/>
      <ItemData ItemOID="IT.CM.DOMAIN" Value="CM"/>
      <ItemData ItemOID="IT.CM.USUBJID" Value="CDISC018"/>
      <ItemData ItemOID="IT.CM.CMSEQ" Value="3"/>
      <ItemData ItemOID="IT.CM.CMTRT" Value="MYLANTA"/>
      <ItemData ItemOID="IT.CM.CMINDC" Value="PROPHYLAXIS OR NON-THERAPEUTIC USE"/>
      <ItemData ItemOID="IT.CM.CMDOSE" Value="1"/>
      <ItemData ItemOID="IT.CM.CMDOSU" Value="TABLET"/>
      <ItemData ItemOID="IT.CM.CMROUTE" Value="ORAL"/>
      <ItemData ItemOID="IT.CM.EPOCH" Value="TREATMENT"/>
      <ItemData ItemOID="IT.CM.CMSTDTC" Value="2013-01-16"/>
      <ItemData ItemOID="IT.CM.CMENDTC" Value="2013-01-16"/>
      <ItemData ItemOID="IT.CM.CMSTDY" Value="31"/>
      <ItemData ItemOID="IT.CM.CMENDY" Value="31"/>
    </ItemGroupData>
    <ItemGroupData ItemGroupOID="IG.CM" data:ItemGroupDataSeq="67">
      <ItemData ItemOID="IT.CM.STUDYID" Value="CDISCPILOT01"/>
      <ItemData ItemOID="IT.CM.DOMAIN" Value="CM"/>
      <ItemData ItemOID="IT.CM.USUBJID" Value="CDISC018"/>
      <ItemData ItemOID="IT.CM.CMSEQ" Value="4"/>
      <ItemData ItemOID="IT.CM.CMTRT" Value="MYLANTA"/>
      <ItemData ItemOID="IT.CM.CMINDC" Value="PROPHYLAXIS OR NON-THERAPEUTIC USE"/>
      <ItemData ItemOID="IT.CM.CMDOSE" Value="1"/>
      <ItemData ItemOID="IT.CM.CMDOSU" Value="TABLET"/>
      <ItemData ItemOID="IT.CM.CMROUTE" Value="ORAL"/>
      <ItemData ItemOID="IT.CM.EPOCH" Value="TREATMENT"/>
      <ItemData ItemOID="IT.CM.CMSTDTC" Value="2013-01-21"/>
      <ItemData ItemOID="IT.CM.CMENDTC" Value="2013-01-24"/>
      <ItemData ItemOID="IT.CM.CMSTDY" Value="36"/>
      <ItemData ItemOID="IT.CM.CMENDY" Value="39"/>
    </ItemGroupData>
    <ItemGroupData ItemGroupOID="IG.CM" data:ItemGroupDataSeq="68">
      <ItemData ItemOID="IT.CM.STUDYID" Value="CDISCPILOT01"/>
      <ItemData ItemOID="IT.CM.DOMAIN" Value="CM"/>
      <ItemData ItemOID="IT.CM.USUBJID" Value="CDISC018"/>
      <ItemData ItemOID="IT.CM.CMSEQ" Value="5"/>
      <ItemData ItemOID="IT.CM.CMTRT" Value="CALAMINE LOTION"/>
      <ItemData ItemOID="IT.CM.CMINDC" Value="PROPHYLAXIS OR NON-THERAPEUTIC USE"/>
      <ItemData ItemOID="IT.CM.CMROUTE" Value="TOPICAL"/>
      <ItemData ItemOID="IT.CM.EPOCH" Value="TREATMENT"/>
      <ItemData ItemOID="IT.CM.CMSTDTC" Value="2013-01-27"/>
      <ItemData ItemOID="IT.CM.CMENDTC" Value="2013-01-27"/>
      <ItemData ItemOID="IT.CM.CMSTDY" Value="42"/>
      <ItemData ItemOID="IT.CM.CMENDY" Value="42"/>
    </ItemGroupData>
  </ClinicalData>
</ODM>
