<?xml version="1.0" encoding="UTF-8"?>
<!-- Dataset-XML: Untyped Data Example  --> 
<!-- Built from the SAS XPT files published with the SDTM-MSG (SDTM Metadata Submission Guidelines) V2.0 --> 
<ODM
  xmlns="http://www.cdisc.org/ns/odm/v1.3"
  xmlns:xlink="http://www.w3.org/1999/xlink" 
  xmlns:data="http://www.cdisc.org/ns/Dataset-XML/v1.0"
  FileType="Snapshot"
  ODMVersion="1.3.2"
  data:DatasetXMLVersion="1.0.0"
  FileOID="www.cdisc.org/StudyMSGv2/1/Define-XML_2.1.0(IG.DD).Data(DD)"
  PriorFileOID="www.cdisc.org/StudyMSGv2/1/Define-XML_2.1.0"
  CreationDateTime="2020-08-21T09:21:13"
  Originator="CDISC MSG Team"
  SourceSystem="M.Hungria-System"
  SourceSystemVersion="2.1-A1"
  >
  <ClinicalData
    StudyOID="cdisc.com/CDISCPILOT01"
    MetaDataVersionOID="MDV.MSGv2.0.SDTMIG.3.3.SDTM.1.7">
    <!-- Dataset (DD) -->
    <ItemGroupData ItemGroupOID="IG.DD" data:ItemGroupDataSeq="1">
      <ItemData ItemOID="IT.DD.STUDYID" Value="CDISCPILOT01"/>
      <ItemData ItemOID="IT.DD.DOMAIN" Value="DD"/>
      <ItemData ItemOID="IT.DD.USUBJID" Value="CDISC002"/>
      <ItemData ItemOID="IT.DD.DDSEQ" Value="1"/>
      <ItemData ItemOID="IT.DD.DDLNKID" Value="9"/>
      <ItemData ItemOID="IT.DD.DDTESTCD" Value="PRCDTH"/>
      <ItemData ItemOID="IT.DD.DDTEST" Value="Primary Cause of Death"/>
      <ItemData ItemOID="IT.DD.DDORRES" Value="SUDDEN DEATH"/>
      <ItemData ItemOID="IT.DD.DDSTRESC" Value="SUDDEN DEATH"/>
      <ItemData ItemOID="IT.DD.EPOCH" Value="TREATMENT"/>
      <ItemData ItemOID="IT.DD.DDDTC" Value="2013-01-14"/>
      <ItemData ItemOID="IT.DD.DDDY" Value="61"/>
    </ItemGroupData>
    <ItemGroupData ItemGroupOID="IG.DD" data:ItemGroupDataSeq="2">
      <ItemData ItemOID="IT.DD.STUDYID" Value="CDISCPILOT01"/>
      <ItemData ItemOID="IT.DD.DOMAIN" Value="DD"/>
      <ItemData ItemOID="IT.DD.USUBJID" Value="CDISC008"/>
      <ItemData ItemOID="IT.DD.DDSEQ" Value="1"/>
      <ItemData ItemOID="IT.DD.DDLNKID" Value="1"/>
      <ItemData ItemOID="IT.DD.DDTESTCD" Value="PRCDTH"/>
      <ItemData ItemOID="IT.DD.DDTEST" Value="Primary Cause of Death"/>
      <ItemData ItemOID="IT.DD.DDORRES" Value="COMPLETED SUICIDE"/>
      <ItemData ItemOID="IT.DD.DDSTRESC" Value="COMPLETED SUICIDE"/>
      <ItemData ItemOID="IT.DD.EPOCH" Value="TREATMENT"/>
      <ItemData ItemOID="IT.DD.DDDTC" Value="2014-11-01"/>
      <ItemData ItemOID="IT.DD.DDDY" Value="175"/>
    </ItemGroupData>
    <ItemGroupData ItemGroupOID="IG.DD" data:ItemGroupDataSeq="3">
      <ItemData ItemOID="IT.DD.STUDYID" Value="CDISCPILOT01"/>
      <ItemData ItemOID="IT.DD.DOMAIN" Value="DD"/>
      <ItemData ItemOID="IT.DD.USUBJID" Value="CDISC013"/>
      <ItemData ItemOID="IT.DD.DDSEQ" Value="1"/>
      <ItemData ItemOID="IT.DD.DDLNKID" Value="1"/>
      <ItemData ItemOID="IT.DD.DDTESTCD" Value="PRCDTH"/>
      <ItemData ItemOID="IT.DD.DDTEST" Value="Primary Cause of Death"/>
      <ItemData ItemOID="IT.DD.DDORRES" Value="MYOCARDIAL INFARCTION"/>
      <ItemData ItemOID="IT.DD.DDSTRESC" Value="MYOCARDIAL INFARCTION"/>
      <ItemData ItemOID="IT.DD.EPOCH" Value="TREATMENT"/>
      <ItemData ItemOID="IT.DD.DDDTC" Value="2013-08-03"/>
      <ItemData ItemOID="IT.DD.DDDY" Value="13"/>
    </ItemGroupData>
  </ClinicalData>
</ODM>
