<?xml version="1.0" encoding="UTF-8"?>
<!-- Dataset-XML: Untyped Data Example  --> 
<!-- Built from the SAS XPT files published with the SDTM-MSG (SDTM Metadata Submission Guidelines) V2.0 --> 
<ODM
  xmlns="http://www.cdisc.org/ns/odm/v1.3"
  xmlns:xlink="http://www.w3.org/1999/xlink" 
  xmlns:data="http://www.cdisc.org/ns/Dataset-XML/v1.0"
  FileType="Snapshot"
  ODMVersion="1.3.2"
  data:DatasetXMLVersion="1.0.0"
  FileOID="www.cdisc.org/StudyMSGv2/1/Define-XML_2.1.0(IG.VS).Data(VS)"
  PriorFileOID="www.cdisc.org/StudyMSGv2/1/Define-XML_2.1.0"
  CreationDateTime="2020-08-21T09:21:13"
  Originator="CDISC MSG Team"
  SourceSystem="M.Hungria-System"
  SourceSystemVersion="2.1-A1"
  >
  <ClinicalData
    StudyOID="cdisc.com/CDISCPILOT01"
    MetaDataVersionOID="MDV.MSGv2.0.SDTMIG.3.3.SDTM.1.7">
    <!-- Dataset (VS) -->
    <ItemGroupData ItemGroupOID="IG.VS" data:ItemGroupDataSeq="1">
      <ItemData ItemOID="IT.VS.STUDYID" Value="CDISCPILOT01"/>
      <ItemData ItemOID="IT.VS.DOMAIN" Value="VS"/>
      <ItemData ItemOID="IT.VS.USUBJID" Value="CDISC001"/>
      <ItemData ItemOID="IT.VS.VSSEQ" Value="1"/>
      <ItemData ItemOID="IT.VS.VSTESTCD" Value="DIABP"/>
      <ItemData ItemOID="IT.VS.VSTEST" Value="Diastolic Blood Pressure"/>
      <ItemData ItemOID="IT.VS.VSPOS" Value="STANDING"/>
      <ItemData ItemOID="IT.VS.VSORRES" Value="71"/>
      <ItemData ItemOID="IT.VS.VSORRESU" Value="mmHg"/>
      <ItemData ItemOID="IT.VS.VSSTRESC" Value="71"/>
      <ItemData ItemOID="IT.VS.VSSTRESN" Value="71"/>
      <ItemData ItemOID="IT.VS.VSSTRESU" Value="mmHg"/>
      <ItemData ItemOID="IT.VS.VISITNUM" Value="1"/>
      <ItemData ItemOID="IT.VS.VISIT" Value="SCREENING 1"/>
      <ItemData ItemOID="IT.VS.EPOCH" Value="SCREENING"/>
      <ItemData ItemOID="IT.VS.VSDTC" Value="2012-11-23"/>
      <ItemData ItemOID="IT.VS.VSDY" Value="-7"/>
    </ItemGroupData>
    <ItemGroupData ItemGroupOID="IG.VS" data:ItemGroupDataSeq="2">
      <ItemData ItemOID="IT.VS.STUDYID" Value="CDISCPILOT01"/>
      <ItemData ItemOID="IT.VS.DOMAIN" Value="VS"/>
      <ItemData ItemOID="IT.VS.USUBJID" Value="CDISC001"/>
      <ItemData ItemOID="IT.VS.VSSEQ" Value="2"/>
      <ItemData ItemOID="IT.VS.VSTESTCD" Value="DIABP"/>
      <ItemData ItemOID="IT.VS.VSTEST" Value="Diastolic Blood Pressure"/>
      <ItemData ItemOID="IT.VS.VSPOS" Value="STANDING"/>
      <ItemData ItemOID="IT.VS.VSORRES" Value="71"/>
      <ItemData ItemOID="IT.VS.VSORRESU" Value="mmHg"/>
      <ItemData ItemOID="IT.VS.VSSTRESC" Value="71"/>
      <ItemData ItemOID="IT.VS.VSSTRESN" Value="71"/>
      <ItemData ItemOID="IT.VS.VSSTRESU" Value="mmHg"/>
      <ItemData ItemOID="IT.VS.VISITNUM" Value="2"/>
      <ItemData ItemOID="IT.VS.VISIT" Value="SCREENING 2"/>
      <ItemData ItemOID="IT.VS.EPOCH" Value="SCREENING"/>
      <ItemData ItemOID="IT.VS.VSDTC" Value="2012-11-28"/>
      <ItemData ItemOID="IT.VS.VSDY" Value="-2"/>
    </ItemGroupData>
    <ItemGroupData ItemGroupOID="IG.VS" data:ItemGroupDataSeq="3">
      <ItemData ItemOID="IT.VS.STUDYID" Value="CDISCPILOT01"/>
      <ItemData ItemOID="IT.VS.DOMAIN" Value="VS"/>
      <ItemData ItemOID="IT.VS.USUBJID" Value="CDISC001"/>
      <ItemData ItemOID="IT.VS.VSSEQ" Value="3"/>
      <ItemData ItemOID="IT.VS.VSTESTCD" Value="DIABP"/>
      <ItemData ItemOID="IT.VS.VSTEST" Value="Diastolic Blood Pressure"/>
      <ItemData ItemOID="IT.VS.VSPOS" Value="STANDING"/>
      <ItemData ItemOID="IT.VS.VSORRES" Value="83"/>
      <ItemData ItemOID="IT.VS.VSORRESU" Value="mmHg"/>
      <ItemData ItemOID="IT.VS.VSSTRESC" Value="83"/>
      <ItemData ItemOID="IT.VS.VSSTRESN" Value="83"/>
      <ItemData ItemOID="IT.VS.VSSTRESU" Value="mmHg"/>
      <ItemData ItemOID="IT.VS.VSLOBXFL" Value="Y"/>
      <ItemData ItemOID="IT.VS.VISITNUM" Value="3"/>
      <ItemData ItemOID="IT.VS.VISIT" Value="BASELINE"/>
      <ItemData ItemOID="IT.VS.EPOCH" Value="SCREENING"/>
      <ItemData ItemOID="IT.VS.VSDTC" Value="2012-11-30"/>
      <ItemData ItemOID="IT.VS.VSDY" Value="1"/>
    </ItemGroupData>
    <ItemGroupData ItemGroupOID="IG.VS" data:ItemGroupDataSeq="4">
      <ItemData ItemOID="IT.VS.STUDYID" Value="CDISCPILOT01"/>
      <ItemData ItemOID="IT.VS.DOMAIN" Value="VS"/>
      <ItemData ItemOID="IT.VS.USUBJID" Value="CDISC001"/>
      <ItemData ItemOID="IT.VS.VSSEQ" Value="4"/>
      <ItemData ItemOID="IT.VS.VSTESTCD" Value="DIABP"/>
      <ItemData ItemOID="IT.VS.VSTEST" Value="Diastolic Blood Pressure"/>
      <ItemData ItemOID="IT.VS.VSPOS" Value="STANDING"/>
      <ItemData ItemOID="IT.VS.VSORRES" Value="79"/>
      <ItemData ItemOID="IT.VS.VSORRESU" Value="mmHg"/>
      <ItemData ItemOID="IT.VS.VSSTRESC" Value="79"/>
      <ItemData ItemOID="IT.VS.VSSTRESN" Value="79"/>
      <ItemData ItemOID="IT.VS.VSSTRESU" Value="mmHg"/>
      <ItemData ItemOID="IT.VS.VISITNUM" Value="4"/>
      <ItemData ItemOID="IT.VS.VISIT" Value="WEEK 2"/>
      <ItemData ItemOID="IT.VS.EPOCH" Value="TREATMENT"/>
      <ItemData ItemOID="IT.VS.VSDTC" Value="2012-12-13"/>
      <ItemData ItemOID="IT.VS.VSDY" Value="14"/>
    </ItemGroupData>
    <ItemGroupData ItemGroupOID="IG.VS" data:ItemGroupDataSeq="5">
      <ItemData ItemOID="IT.VS.STUDYID" Value="CDISCPILOT01"/>
      <ItemData ItemOID="IT.VS.DOMAIN" Value="VS"/>
      <ItemData ItemOID="IT.VS.USUBJID" Value="CDISC001"/>
      <ItemData ItemOID="IT.VS.VSSEQ" Value="5"/>
      <ItemData ItemOID="IT.VS.VSTESTCD" Value="DIABP"/>
      <ItemData ItemOID="IT.VS.VSTEST" Value="Diastolic Blood Pressure"/>
      <ItemData ItemOID="IT.VS.VSPOS" Value="STANDING"/>
      <ItemData ItemOID="IT.VS.VSORRES" Value="68"/>
      <ItemData ItemOID="IT.VS.VSORRESU" Value="mmHg"/>
      <ItemData ItemOID="IT.VS.VSSTRESC" Value="68"/>
      <ItemData ItemOID="IT.VS.VSSTRESN" Value="68"/>
      <ItemData ItemOID="IT.VS.VSSTRESU" Value="mmHg"/>
      <ItemData ItemOID="IT.VS.VISITNUM" Value="5"/>
      <ItemData ItemOID="IT.VS.VISIT" Value="WEEK 4"/>
      <ItemData ItemOID="IT.VS.EPOCH" Value="TREATMENT"/>
      <ItemData ItemOID="IT.VS.VSDTC" Value="2012-12-26"/>
      <ItemData ItemOID="IT.VS.VSDY" Value="27"/>
    </ItemGroupData>
    <ItemGroupData ItemGroupOID="IG.VS" data:ItemGroupDataSeq="6">
      <ItemData ItemOID="IT.VS.STUDYID" Value="CDISCPILOT01"/>
      <ItemData ItemOID="IT.VS.DOMAIN" Value="VS"/>
      <ItemData ItemOID="IT.VS.USUBJID" Value="CDISC001"/>
      <ItemData ItemOID="IT.VS.VSSEQ" Value="6"/>
      <ItemData ItemOID="IT.VS.VSTESTCD" Value="DIABP"/>
      <ItemData ItemOID="IT.VS.VSTEST" Value="Diastolic Blood Pressure"/>
      <ItemData ItemOID="IT.VS.VSPOS" Value="SUPINE"/>
      <ItemData ItemOID="IT.VS.VSORRES" Value="77"/>
      <ItemData ItemOID="IT.VS.VSORRESU" Value="mmHg"/>
      <ItemData ItemOID="IT.VS.VSSTRESC" Value="77"/>
      <ItemData ItemOID="IT.VS.VSSTRESN" Value="77"/>
      <ItemData ItemOID="IT.VS.VSSTRESU" Value="mmHg"/>
      <ItemData ItemOID="IT.VS.VSREPNUM" Value="1"/>
      <ItemData ItemOID="IT.VS.VISITNUM" Value="7"/>
      <ItemData ItemOID="IT.VS.VISIT" Value="WEEK 6"/>
      <ItemData ItemOID="IT.VS.EPOCH" Value="TREATMENT"/>
      <ItemData ItemOID="IT.VS.VSDTC" Value="2013-01-10"/>
      <ItemData ItemOID="IT.VS.VSDY" Value="42"/>
    </ItemGroupData>
    <ItemGroupData ItemGroupOID="IG.VS" data:ItemGroupDataSeq="7">
      <ItemData ItemOID="IT.VS.STUDYID" Value="CDISCPILOT01"/>
      <ItemData ItemOID="IT.VS.DOMAIN" Value="VS"/>
      <ItemData ItemOID="IT.VS.USUBJID" Value="CDISC001"/>
      <ItemData ItemOID="IT.VS.VSSEQ" Value="7"/>
      <ItemData ItemOID="IT.VS.VSTESTCD" Value="DIABP"/>
      <ItemData ItemOID="IT.VS.VSTEST" Value="Diastolic Blood Pressure"/>
      <ItemData ItemOID="IT.VS.VSPOS" Value="STANDING"/>
      <ItemData ItemOID="IT.VS.VSORRES" Value="71"/>
      <ItemData ItemOID="IT.VS.VSORRESU" Value="mmHg"/>
      <ItemData ItemOID="IT.VS.VSSTRESC" Value="71"/>
      <ItemData ItemOID="IT.VS.VSSTRESN" Value="71"/>
      <ItemData ItemOID="IT.VS.VSSTRESU" Value="mmHg"/>
      <ItemData ItemOID="IT.VS.VSREPNUM" Value="2"/>
      <ItemData ItemOID="IT.VS.VISITNUM" Value="7"/>
      <ItemData ItemOID="IT.VS.VISIT" Value="WEEK 6"/>
      <ItemData ItemOID="IT.VS.EPOCH" Value="TREATMENT"/>
      <ItemData ItemOID="IT.VS.VSDTC" Value="2013-01-10"/>
      <ItemData ItemOID="IT.VS.VSDY" Value="42"/>
    </ItemGroupData>
    <ItemGroupData ItemGroupOID="IG.VS" data:ItemGroupDataSeq="8">
      <ItemData ItemOID="IT.VS.STUDYID" Value="CDISCPILOT01"/>
      <ItemData ItemOID="IT.VS.DOMAIN" Value="VS"/>
      <ItemData ItemOID="IT.VS.USUBJID" Value="CDISC001"/>
      <ItemData ItemOID="IT.VS.VSSEQ" Value="8"/>
      <ItemData ItemOID="IT.VS.VSTESTCD" Value="DIABP"/>
      <ItemData ItemOID="IT.VS.VSTEST" Value="Diastolic Blood Pressure"/>
      <ItemData ItemOID="IT.VS.VSPOS" Value="STANDING"/>
      <ItemData ItemOID="IT.VS.VSORRES" Value="69"/>
      <ItemData ItemOID="IT.VS.VSORRESU" Value="mmHg"/>
      <ItemData ItemOID="IT.VS.VSSTRESC" Value="69"/>
      <ItemData ItemOID="IT.VS.VSSTRESN" Value="69"/>
      <ItemData ItemOID="IT.VS.VSSTRESU" Value="mmHg"/>
      <ItemData ItemOID="IT.VS.VSREPNUM" Value="3"/>
      <ItemData ItemOID="IT.VS.VISITNUM" Value="7"/>
      <ItemData ItemOID="IT.VS.VISIT" Value="WEEK 6"/>
      <ItemData ItemOID="IT.VS.EPOCH" Value="TREATMENT"/>
      <ItemData ItemOID="IT.VS.VSDTC" Value="2013-01-10"/>
      <ItemData ItemOID="IT.VS.VSDY" Value="42"/>
    </ItemGroupData>
    <ItemGroupData ItemGroupOID="IG.VS" data:ItemGroupDataSeq="9">
      <ItemData ItemOID="IT.VS.STUDYID" Value="CDISCPILOT01"/>
      <ItemData ItemOID="IT.VS.DOMAIN" Value="VS"/>
      <ItemData ItemOID="IT.VS.USUBJID" Value="CDISC001"/>
      <ItemData ItemOID="IT.VS.VSSEQ" Value="9"/>
      <ItemData ItemOID="IT.VS.VSTESTCD" Value="DIABP"/>
      <ItemData ItemOID="IT.VS.VSTEST" Value="Diastolic Blood Pressure"/>
      <ItemData ItemOID="IT.VS.VSPOS" Value="SUPINE"/>
      <ItemData ItemOID="IT.VS.VSORRES" Value="76"/>
      <ItemData ItemOID="IT.VS.VSORRESU" Value="mmHg"/>
      <ItemData ItemOID="IT.VS.VSSTRESC" Value="76"/>
      <ItemData ItemOID="IT.VS.VSSTRESN" Value="76"/>
      <ItemData ItemOID="IT.VS.VSSTRESU" Value="mmHg"/>
      <ItemData ItemOID="IT.VS.VSREPNUM" Value="1"/>
      <ItemData ItemOID="IT.VS.VISITNUM" Value="8"/>
      <ItemData ItemOID="IT.VS.VISIT" Value="WEEK 8"/>
      <ItemData ItemOID="IT.VS.EPOCH" Value="TREATMENT"/>
      <ItemData ItemOID="IT.VS.VSDTC" Value="2013-01-23"/>
      <ItemData ItemOID="IT.VS.VSDY" Value="55"/>
    </ItemGroupData>
    <ItemGroupData ItemGroupOID="IG.VS" data:ItemGroupDataSeq="10">
      <ItemData ItemOID="IT.VS.STUDYID" Value="CDISCPILOT01"/>
      <ItemData ItemOID="IT.VS.DOMAIN" Value="VS"/>
      <ItemData ItemOID="IT.VS.USUBJID" Value="CDISC001"/>
      <ItemData ItemOID="IT.VS.VSSEQ" Value="10"/>
      <ItemData ItemOID="IT.VS.VSTESTCD" Value="DIABP"/>
      <ItemData ItemOID="IT.VS.VSTEST" Value="Diastolic Blood Pressure"/>
      <ItemData ItemOID="IT.VS.VSPOS" Value="STANDING"/>
      <ItemData ItemOID="IT.VS.VSORRES" Value="52"/>
      <ItemData ItemOID="IT.VS.VSORRESU" Value="mmHg"/>
      <ItemData ItemOID="IT.VS.VSSTRESC" Value="52"/>
      <ItemData ItemOID="IT.VS.VSSTRESN" Value="52"/>
      <ItemData ItemOID="IT.VS.VSSTRESU" Value="mmHg"/>
      <ItemData ItemOID="IT.VS.VSREPNUM" Value="2"/>
      <ItemData ItemOID="IT.VS.VISITNUM" Value="8"/>
      <ItemData ItemOID="IT.VS.VISIT" Value="WEEK 8"/>
      <ItemData ItemOID="IT.VS.EPOCH" Value="TREATMENT"/>
      <ItemData ItemOID="IT.VS.VSDTC" Value="2013-01-23"/>
      <ItemData ItemOID="IT.VS.VSDY" Value="55"/>
    </ItemGroupData>
    <ItemGroupData ItemGroupOID="IG.VS" data:ItemGroupDataSeq="11">
      <ItemData ItemOID="IT.VS.STUDYID" Value="CDISCPILOT01"/>
      <ItemData ItemOID="IT.VS.DOMAIN" Value="VS"/>
      <ItemData ItemOID="IT.VS.USUBJID" Value="CDISC001"/>
      <ItemData ItemOID="IT.VS.VSSEQ" Value="11"/>
      <ItemData ItemOID="IT.VS.VSTESTCD" Value="DIABP"/>
      <ItemData ItemOID="IT.VS.VSTEST" Value="Diastolic Blood Pressure"/>
      <ItemData ItemOID="IT.VS.VSPOS" Value="STANDING"/>
      <ItemData ItemOID="IT.VS.VSORRES" Value="60"/>
      <ItemData ItemOID="IT.VS.VSORRESU" Value="mmHg"/>
      <ItemData ItemOID="IT.VS.VSSTRESC" Value="60"/>
      <ItemData ItemOID="IT.VS.VSSTRESN" Value="60"/>
      <ItemData ItemOID="IT.VS.VSSTRESU" Value="mmHg"/>
      <ItemData ItemOID="IT.VS.VSREPNUM" Value="3"/>
      <ItemData ItemOID="IT.VS.VISITNUM" Value="8"/>
      <ItemData ItemOID="IT.VS.VISIT" Value="WEEK 8"/>
      <ItemData ItemOID="IT.VS.EPOCH" Value="TREATMENT"/>
      <ItemData ItemOID="IT.VS.VSDTC" Value="2013-01-23"/>
      <ItemData ItemOID="IT.VS.VSDY" Value="55"/>
    </ItemGroupData>
    <ItemGroupData ItemGroupOID="IG.VS" data:ItemGroupDataSeq="12">
      <ItemData ItemOID="IT.VS.STUDYID" Value="CDISCPILOT01"/>
      <ItemData ItemOID="IT.VS.DOMAIN" Value="VS"/>
      <ItemData ItemOID="IT.VS.USUBJID" Value="CDISC001"/>
      <ItemData ItemOID="IT.VS.VSSEQ" Value="12"/>
      <ItemData ItemOID="IT.VS.VSTESTCD" Value="DIABP"/>
      <ItemData ItemOID="IT.VS.VSTEST" Value="Diastolic Blood Pressure"/>
      <ItemData ItemOID="IT.VS.VSPOS" Value="SUPINE"/>
      <ItemData ItemOID="IT.VS.VSORRES" Value="68"/>
      <ItemData ItemOID="IT.VS.VSORRESU" Value="mmHg"/>
      <ItemData ItemOID="IT.VS.VSSTRESC" Value="68"/>
      <ItemData ItemOID="IT.VS.VSSTRESN" Value="68"/>
      <ItemData ItemOID="IT.VS.VSSTRESU" Value="mmHg"/>
      <ItemData ItemOID="IT.VS.VSREPNUM" Value="1"/>
      <ItemData ItemOID="IT.VS.VISITNUM" Value="201"/>
      <ItemData ItemOID="IT.VS.VISIT" Value="EARLY DISCONTINUATION RETRIEVAL"/>
      <ItemData ItemOID="IT.VS.EPOCH" Value="TREATMENT"/>
      <ItemData ItemOID="IT.VS.VSDTC" Value="2013-05-20"/>
      <ItemData ItemOID="IT.VS.VSDY" Value="172"/>
    </ItemGroupData>
    <ItemGroupData ItemGroupOID="IG.VS" data:ItemGroupDataSeq="13">
      <ItemData ItemOID="IT.VS.STUDYID" Value="CDISCPILOT01"/>
      <ItemData ItemOID="IT.VS.DOMAIN" Value="VS"/>
      <ItemData ItemOID="IT.VS.USUBJID" Value="CDISC001"/>
      <ItemData ItemOID="IT.VS.VSSEQ" Value="13"/>
      <ItemData ItemOID="IT.VS.VSTESTCD" Value="DIABP"/>
      <ItemData ItemOID="IT.VS.VSTEST" Value="Diastolic Blood Pressure"/>
      <ItemData ItemOID="IT.VS.VSPOS" Value="STANDING"/>
      <ItemData ItemOID="IT.VS.VSORRES" Value="72"/>
      <ItemData ItemOID="IT.VS.VSORRESU" Value="mmHg"/>
      <ItemData ItemOID="IT.VS.VSSTRESC" Value="72"/>
      <ItemData ItemOID="IT.VS.VSSTRESN" Value="72"/>
      <ItemData ItemOID="IT.VS.VSSTRESU" Value="mmHg"/>
      <ItemData ItemOID="IT.VS.VSREPNUM" Value="2"/>
      <ItemData ItemOID="IT.VS.VISITNUM" Value="201"/>
      <ItemData ItemOID="IT.VS.VISIT" Value="EARLY DISCONTINUATION RETRIEVAL"/>
      <ItemData ItemOID="IT.VS.EPOCH" Value="TREATMENT"/>
      <ItemData ItemOID="IT.VS.VSDTC" Value="2013-05-20"/>
      <ItemData ItemOID="IT.VS.VSDY" Value="172"/>
    </ItemGroupData>
    <ItemGroupData ItemGroupOID="IG.VS" data:ItemGroupDataSeq="14">
      <ItemData ItemOID="IT.VS.STUDYID" Value="CDISCPILOT01"/>
      <ItemData ItemOID="IT.VS.DOMAIN" Value="VS"/>
      <ItemData ItemOID="IT.VS.USUBJID" Value="CDISC001"/>
      <ItemData ItemOID="IT.VS.VSSEQ" Value="14"/>
      <ItemData ItemOID="IT.VS.VSTESTCD" Value="DIABP"/>
      <ItemData ItemOID="IT.VS.VSTEST" Value="Diastolic Blood Pressure"/>
      <ItemData ItemOID="IT.VS.VSPOS" Value="STANDING"/>
      <ItemData ItemOID="IT.VS.VSORRES" Value="68"/>
      <ItemData ItemOID="IT.VS.VSORRESU" Value="mmHg"/>
      <ItemData ItemOID="IT.VS.VSSTRESC" Value="68"/>
      <ItemData ItemOID="IT.VS.VSSTRESN" Value="68"/>
      <ItemData ItemOID="IT.VS.VSSTRESU" Value="mmHg"/>
      <ItemData ItemOID="IT.VS.VSREPNUM" Value="3"/>
      <ItemData ItemOID="IT.VS.VISITNUM" Value="201"/>
      <ItemData ItemOID="IT.VS.VISIT" Value="EARLY DISCONTINUATION RETRIEVAL"/>
      <ItemData ItemOID="IT.VS.EPOCH" Value="TREATMENT"/>
      <ItemData ItemOID="IT.VS.VSDTC" Value="2013-05-20"/>
      <ItemData ItemOID="IT.VS.VSDY" Value="172"/>
    </ItemGroupData>
    <ItemGroupData ItemGroupOID="IG.VS" data:ItemGroupDataSeq="15">
      <ItemData ItemOID="IT.VS.STUDYID" Value="CDISCPILOT01"/>
      <ItemData ItemOID="IT.VS.DOMAIN" Value="VS"/>
      <ItemData ItemOID="IT.VS.USUBJID" Value="CDISC001"/>
      <ItemData ItemOID="IT.VS.VSSEQ" Value="15"/>
      <ItemData ItemOID="IT.VS.VSTESTCD" Value="HEIGHT"/>
      <ItemData ItemOID="IT.VS.VSTEST" Value="Height"/>
      <ItemData ItemOID="IT.VS.VSORRES" Value="71.5"/>
      <ItemData ItemOID="IT.VS.VSORRESU" Value="in"/>
      <ItemData ItemOID="IT.VS.VSSTRESC" Value="181.61"/>
      <ItemData ItemOID="IT.VS.VSSTRESN" Value="181.61"/>
      <ItemData ItemOID="IT.VS.VSSTRESU" Value="cm"/>
      <ItemData ItemOID="IT.VS.VISITNUM" Value="1"/>
      <ItemData ItemOID="IT.VS.VISIT" Value="SCREENING 1"/>
      <ItemData ItemOID="IT.VS.EPOCH" Value="SCREENING"/>
      <ItemData ItemOID="IT.VS.VSDTC" Value="2012-11-23"/>
      <ItemData ItemOID="IT.VS.VSDY" Value="-7"/>
    </ItemGroupData>
    <ItemGroupData ItemGroupOID="IG.VS" data:ItemGroupDataSeq="16">
      <ItemData ItemOID="IT.VS.STUDYID" Value="CDISCPILOT01"/>
      <ItemData ItemOID="IT.VS.DOMAIN" Value="VS"/>
      <ItemData ItemOID="IT.VS.USUBJID" Value="CDISC001"/>
      <ItemData ItemOID="IT.VS.VSSEQ" Value="16"/>
      <ItemData ItemOID="IT.VS.VSTESTCD" Value="PULSE"/>
      <ItemData ItemOID="IT.VS.VSTEST" Value="Pulse Rate"/>
      <ItemData ItemOID="IT.VS.VSPOS" Value="STANDING"/>
      <ItemData ItemOID="IT.VS.VSORRES" Value="51"/>
      <ItemData ItemOID="IT.VS.VSORRESU" Value="beats/min"/>
      <ItemData ItemOID="IT.VS.VSSTRESC" Value="51"/>
      <ItemData ItemOID="IT.VS.VSSTRESN" Value="51"/>
      <ItemData ItemOID="IT.VS.VSSTRESU" Value="beats/min"/>
      <ItemData ItemOID="IT.VS.VISITNUM" Value="1"/>
      <ItemData ItemOID="IT.VS.VISIT" Value="SCREENING 1"/>
      <ItemData ItemOID="IT.VS.EPOCH" Value="SCREENING"/>
      <ItemData ItemOID="IT.VS.VSDTC" Value="2012-11-23"/>
      <ItemData ItemOID="IT.VS.VSDY" Value="-7"/>
    </ItemGroupData>
    <ItemGroupData ItemGroupOID="IG.VS" data:ItemGroupDataSeq="17">
      <ItemData ItemOID="IT.VS.STUDYID" Value="CDISCPILOT01"/>
      <ItemData ItemOID="IT.VS.DOMAIN" Value="VS"/>
      <ItemData ItemOID="IT.VS.USUBJID" Value="CDISC001"/>
      <ItemData ItemOID="IT.VS.VSSEQ" Value="17"/>
      <ItemData ItemOID="IT.VS.VSTESTCD" Value="PULSE"/>
      <ItemData ItemOID="IT.VS.VSTEST" Value="Pulse Rate"/>
      <ItemData ItemOID="IT.VS.VSPOS" Value="STANDING"/>
      <ItemData ItemOID="IT.VS.VSORRES" Value="50"/>
      <ItemData ItemOID="IT.VS.VSORRESU" Value="beats/min"/>
      <ItemData ItemOID="IT.VS.VSSTRESC" Value="50"/>
      <ItemData ItemOID="IT.VS.VSSTRESN" Value="50"/>
      <ItemData ItemOID="IT.VS.VSSTRESU" Value="beats/min"/>
      <ItemData ItemOID="IT.VS.VISITNUM" Value="2"/>
      <ItemData ItemOID="IT.VS.VISIT" Value="SCREENING 2"/>
      <ItemData ItemOID="IT.VS.EPOCH" Value="SCREENING"/>
      <ItemData ItemOID="IT.VS.VSDTC" Value="2012-11-28"/>
      <ItemData ItemOID="IT.VS.VSDY" Value="-2"/>
    </ItemGroupData>
    <ItemGroupData ItemGroupOID="IG.VS" data:ItemGroupDataSeq="18">
      <ItemData ItemOID="IT.VS.STUDYID" Value="CDISCPILOT01"/>
      <ItemData ItemOID="IT.VS.DOMAIN" Value="VS"/>
      <ItemData ItemOID="IT.VS.USUBJID" Value="CDISC001"/>
      <ItemData ItemOID="IT.VS.VSSEQ" Value="18"/>
      <ItemData ItemOID="IT.VS.VSTESTCD" Value="PULSE"/>
      <ItemData ItemOID="IT.VS.VSTEST" Value="Pulse Rate"/>
      <ItemData ItemOID="IT.VS.VSPOS" Value="STANDING"/>
      <ItemData ItemOID="IT.VS.VSORRES" Value="50"/>
      <ItemData ItemOID="IT.VS.VSORRESU" Value="beats/min"/>
      <ItemData ItemOID="IT.VS.VSSTRESC" Value="50"/>
      <ItemData ItemOID="IT.VS.VSSTRESN" Value="50"/>
      <ItemData ItemOID="IT.VS.VSSTRESU" Value="beats/min"/>
      <ItemData ItemOID="IT.VS.VSLOBXFL" Value="Y"/>
      <ItemData ItemOID="IT.VS.VISITNUM" Value="3"/>
      <ItemData ItemOID="IT.VS.VISIT" Value="BASELINE"/>
      <ItemData ItemOID="IT.VS.EPOCH" Value="SCREENING"/>
      <ItemData ItemOID="IT.VS.VSDTC" Value="2012-11-30"/>
      <ItemData ItemOID="IT.VS.VSDY" Value="1"/>
    </ItemGroupData>
    <ItemGroupData ItemGroupOID="IG.VS" data:ItemGroupDataSeq="19">
      <ItemData ItemOID="IT.VS.STUDYID" Value="CDISCPILOT01"/>
      <ItemData ItemOID="IT.VS.DOMAIN" Value="VS"/>
      <ItemData ItemOID="IT.VS.USUBJID" Value="CDISC001"/>
      <ItemData ItemOID="IT.VS.VSSEQ" Value="19"/>
      <ItemData ItemOID="IT.VS.VSTESTCD" Value="PULSE"/>
      <ItemData ItemOID="IT.VS.VSTEST" Value="Pulse Rate"/>
      <ItemData ItemOID="IT.VS.VSPOS" Value="STANDING"/>
      <ItemData ItemOID="IT.VS.VSORRES" Value="53"/>
      <ItemData ItemOID="IT.VS.VSORRESU" Value="beats/min"/>
      <ItemData ItemOID="IT.VS.VSSTRESC" Value="53"/>
      <ItemData ItemOID="IT.VS.VSSTRESN" Value="53"/>
      <ItemData ItemOID="IT.VS.VSSTRESU" Value="beats/min"/>
      <ItemData ItemOID="IT.VS.VISITNUM" Value="4"/>
      <ItemData ItemOID="IT.VS.VISIT" Value="WEEK 2"/>
      <ItemData ItemOID="IT.VS.EPOCH" Value="TREATMENT"/>
      <ItemData ItemOID="IT.VS.VSDTC" Value="2012-12-13"/>
      <ItemData ItemOID="IT.VS.VSDY" Value="14"/>
    </ItemGroupData>
    <ItemGroupData ItemGroupOID="IG.VS" data:ItemGroupDataSeq="20">
      <ItemData ItemOID="IT.VS.STUDYID" Value="CDISCPILOT01"/>
      <ItemData ItemOID="IT.VS.DOMAIN" Value="VS"/>
      <ItemData ItemOID="IT.VS.USUBJID" Value="CDISC001"/>
      <ItemData ItemOID="IT.VS.VSSEQ" Value="20"/>
      <ItemData ItemOID="IT.VS.VSTESTCD" Value="PULSE"/>
      <ItemData ItemOID="IT.VS.VSTEST" Value="Pulse Rate"/>
      <ItemData ItemOID="IT.VS.VSPOS" Value="STANDING"/>
      <ItemData ItemOID="IT.VS.VSORRES" Value="51"/>
      <ItemData ItemOID="IT.VS.VSORRESU" Value="beats/min"/>
      <ItemData ItemOID="IT.VS.VSSTRESC" Value="51"/>
      <ItemData ItemOID="IT.VS.VSSTRESN" Value="51"/>
      <ItemData ItemOID="IT.VS.VSSTRESU" Value="beats/min"/>
      <ItemData ItemOID="IT.VS.VISITNUM" Value="5"/>
      <ItemData ItemOID="IT.VS.VISIT" Value="WEEK 4"/>
      <ItemData ItemOID="IT.VS.EPOCH" Value="TREATMENT"/>
      <ItemData ItemOID="IT.VS.VSDTC" Value="2012-12-26"/>
      <ItemData ItemOID="IT.VS.VSDY" Value="27"/>
    </ItemGroupData>
    <ItemGroupData ItemGroupOID="IG.VS" data:ItemGroupDataSeq="21">
      <ItemData ItemOID="IT.VS.STUDYID" Value="CDISCPILOT01"/>
      <ItemData ItemOID="IT.VS.DOMAIN" Value="VS"/>
      <ItemData ItemOID="IT.VS.USUBJID" Value="CDISC001"/>
      <ItemData ItemOID="IT.VS.VSSEQ" Value="21"/>
      <ItemData ItemOID="IT.VS.VSTESTCD" Value="PULSE"/>
      <ItemData ItemOID="IT.VS.VSTEST" Value="Pulse Rate"/>
      <ItemData ItemOID="IT.VS.VSPOS" Value="SUPINE"/>
      <ItemData ItemOID="IT.VS.VSORRES" Value="52"/>
      <ItemData ItemOID="IT.VS.VSORRESU" Value="beats/min"/>
      <ItemData ItemOID="IT.VS.VSSTRESC" Value="52"/>
      <ItemData ItemOID="IT.VS.VSSTRESN" Value="52"/>
      <ItemData ItemOID="IT.VS.VSSTRESU" Value="beats/min"/>
      <ItemData ItemOID="IT.VS.VSREPNUM" Value="1"/>
      <ItemData ItemOID="IT.VS.VISITNUM" Value="7"/>
      <ItemData ItemOID="IT.VS.VISIT" Value="WEEK 6"/>
      <ItemData ItemOID="IT.VS.EPOCH" Value="TREATMENT"/>
      <ItemData ItemOID="IT.VS.VSDTC" Value="2013-01-10"/>
      <ItemData ItemOID="IT.VS.VSDY" Value="42"/>
    </ItemGroupData>
    <ItemGroupData ItemGroupOID="IG.VS" data:ItemGroupDataSeq="22">
      <ItemData ItemOID="IT.VS.STUDYID" Value="CDISCPILOT01"/>
      <ItemData ItemOID="IT.VS.DOMAIN" Value="VS"/>
      <ItemData ItemOID="IT.VS.USUBJID" Value="CDISC001"/>
      <ItemData ItemOID="IT.VS.VSSEQ" Value="22"/>
      <ItemData ItemOID="IT.VS.VSTESTCD" Value="PULSE"/>
      <ItemData ItemOID="IT.VS.VSTEST" Value="Pulse Rate"/>
      <ItemData ItemOID="IT.VS.VSPOS" Value="STANDING"/>
      <ItemData ItemOID="IT.VS.VSORRES" Value="62"/>
      <ItemData ItemOID="IT.VS.VSORRESU" Value="beats/min"/>
      <ItemData ItemOID="IT.VS.VSSTRESC" Value="62"/>
      <ItemData ItemOID="IT.VS.VSSTRESN" Value="62"/>
      <ItemData ItemOID="IT.VS.VSSTRESU" Value="beats/min"/>
      <ItemData ItemOID="IT.VS.VSREPNUM" Value="2"/>
      <ItemData ItemOID="IT.VS.VISITNUM" Value="7"/>
      <ItemData ItemOID="IT.VS.VISIT" Value="WEEK 6"/>
      <ItemData ItemOID="IT.VS.EPOCH" Value="TREATMENT"/>
      <ItemData ItemOID="IT.VS.VSDTC" Value="2013-01-10"/>
      <ItemData ItemOID="IT.VS.VSDY" Value="42"/>
    </ItemGroupData>
    <ItemGroupData ItemGroupOID="IG.VS" data:ItemGroupDataSeq="23">
      <ItemData ItemOID="IT.VS.STUDYID" Value="CDISCPILOT01"/>
      <ItemData ItemOID="IT.VS.DOMAIN" Value="VS"/>
      <ItemData ItemOID="IT.VS.USUBJID" Value="CDISC001"/>
      <ItemData ItemOID="IT.VS.VSSEQ" Value="23"/>
      <ItemData ItemOID="IT.VS.VSTESTCD" Value="PULSE"/>
      <ItemData ItemOID="IT.VS.VSTEST" Value="Pulse Rate"/>
      <ItemData ItemOID="IT.VS.VSPOS" Value="STANDING"/>
      <ItemData ItemOID="IT.VS.VSORRES" Value="62"/>
      <ItemData ItemOID="IT.VS.VSORRESU" Value="beats/min"/>
      <ItemData ItemOID="IT.VS.VSSTRESC" Value="62"/>
      <ItemData ItemOID="IT.VS.VSSTRESN" Value="62"/>
      <ItemData ItemOID="IT.VS.VSSTRESU" Value="beats/min"/>
      <ItemData ItemOID="IT.VS.VSREPNUM" Value="3"/>
      <ItemData ItemOID="IT.VS.VISITNUM" Value="7"/>
      <ItemData ItemOID="IT.VS.VISIT" Value="WEEK 6"/>
      <ItemData ItemOID="IT.VS.EPOCH" Value="TREATMENT"/>
      <ItemData ItemOID="IT.VS.VSDTC" Value="2013-01-10"/>
      <ItemData ItemOID="IT.VS.VSDY" Value="42"/>
    </ItemGroupData>
    <ItemGroupData ItemGroupOID="IG.VS" data:ItemGroupDataSeq="24">
      <ItemData ItemOID="IT.VS.STUDYID" Value="CDISCPILOT01"/>
      <ItemData ItemOID="IT.VS.DOMAIN" Value="VS"/>
      <ItemData ItemOID="IT.VS.USUBJID" Value="CDISC001"/>
      <ItemData ItemOID="IT.VS.VSSEQ" Value="24"/>
      <ItemData ItemOID="IT.VS.VSTESTCD" Value="PULSE"/>
      <ItemData ItemOID="IT.VS.VSTEST" Value="Pulse Rate"/>
      <ItemData ItemOID="IT.VS.VSPOS" Value="SUPINE"/>
      <ItemData ItemOID="IT.VS.VSORRES" Value="50"/>
      <ItemData ItemOID="IT.VS.VSORRESU" Value="beats/min"/>
      <ItemData ItemOID="IT.VS.VSSTRESC" Value="50"/>
      <ItemData ItemOID="IT.VS.VSSTRESN" Value="50"/>
      <ItemData ItemOID="IT.VS.VSSTRESU" Value="beats/min"/>
      <ItemData ItemOID="IT.VS.VSREPNUM" Value="1"/>
      <ItemData ItemOID="IT.VS.VISITNUM" Value="8"/>
      <ItemData ItemOID="IT.VS.VISIT" Value="WEEK 8"/>
      <ItemData ItemOID="IT.VS.EPOCH" Value="TREATMENT"/>
      <ItemData ItemOID="IT.VS.VSDTC" Value="2013-01-23"/>
      <ItemData ItemOID="IT.VS.VSDY" Value="55"/>
    </ItemGroupData>
    <ItemGroupData ItemGroupOID="IG.VS" data:ItemGroupDataSeq="25">
      <ItemData ItemOID="IT.VS.STUDYID" Value="CDISCPILOT01"/>
      <ItemData ItemOID="IT.VS.DOMAIN" Value="VS"/>
      <ItemData ItemOID="IT.VS.USUBJID" Value="CDISC001"/>
      <ItemData ItemOID="IT.VS.VSSEQ" Value="25"/>
      <ItemData ItemOID="IT.VS.VSTESTCD" Value="PULSE"/>
      <ItemData ItemOID="IT.VS.VSTEST" Value="Pulse Rate"/>
      <ItemData ItemOID="IT.VS.VSPOS" Value="STANDING"/>
      <ItemData ItemOID="IT.VS.VSORRES" Value="52"/>
      <ItemData ItemOID="IT.VS.VSORRESU" Value="beats/min"/>
      <ItemData ItemOID="IT.VS.VSSTRESC" Value="52"/>
      <ItemData ItemOID="IT.VS.VSSTRESN" Value="52"/>
      <ItemData ItemOID="IT.VS.VSSTRESU" Value="beats/min"/>
      <ItemData ItemOID="IT.VS.VSREPNUM" Value="2"/>
      <ItemData ItemOID="IT.VS.VISITNUM" Value="8"/>
      <ItemData ItemOID="IT.VS.VISIT" Value="WEEK 8"/>
      <ItemData ItemOID="IT.VS.EPOCH" Value="TREATMENT"/>
      <ItemData ItemOID="IT.VS.VSDTC" Value="2013-01-23"/>
      <ItemData ItemOID="IT.VS.VSDY" Value="55"/>
    </ItemGroupData>
    <ItemGroupData ItemGroupOID="IG.VS" data:ItemGroupDataSeq="26">
      <ItemData ItemOID="IT.VS.STUDYID" Value="CDISCPILOT01"/>
      <ItemData ItemOID="IT.VS.DOMAIN" Value="VS"/>
      <ItemData ItemOID="IT.VS.USUBJID" Value="CDISC001"/>
      <ItemData ItemOID="IT.VS.VSSEQ" Value="26"/>
      <ItemData ItemOID="IT.VS.VSTESTCD" Value="PULSE"/>
      <ItemData ItemOID="IT.VS.VSTEST" Value="Pulse Rate"/>
      <ItemData ItemOID="IT.VS.VSPOS" Value="STANDING"/>
      <ItemData ItemOID="IT.VS.VSORRES" Value="54"/>
      <ItemData ItemOID="IT.VS.VSORRESU" Value="beats/min"/>
      <ItemData ItemOID="IT.VS.VSSTRESC" Value="54"/>
      <ItemData ItemOID="IT.VS.VSSTRESN" Value="54"/>
      <ItemData ItemOID="IT.VS.VSSTRESU" Value="beats/min"/>
      <ItemData ItemOID="IT.VS.VSREPNUM" Value="3"/>
      <ItemData ItemOID="IT.VS.VISITNUM" Value="8"/>
      <ItemData ItemOID="IT.VS.VISIT" Value="WEEK 8"/>
      <ItemData ItemOID="IT.VS.EPOCH" Value="TREATMENT"/>
      <ItemData ItemOID="IT.VS.VSDTC" Value="2013-01-23"/>
      <ItemData ItemOID="IT.VS.VSDY" Value="55"/>
    </ItemGroupData>
    <ItemGroupData ItemGroupOID="IG.VS" data:ItemGroupDataSeq="27">
      <ItemData ItemOID="IT.VS.STUDYID" Value="CDISCPILOT01"/>
      <ItemData ItemOID="IT.VS.DOMAIN" Value="VS"/>
      <ItemData ItemOID="IT.VS.USUBJID" Value="CDISC001"/>
      <ItemData ItemOID="IT.VS.VSSEQ" Value="27"/>
      <ItemData ItemOID="IT.VS.VSTESTCD" Value="PULSE"/>
      <ItemData ItemOID="IT.VS.VSTEST" Value="Pulse Rate"/>
      <ItemData ItemOID="IT.VS.VSPOS" Value="SUPINE"/>
      <ItemData ItemOID="IT.VS.VSORRES" Value="79"/>
      <ItemData ItemOID="IT.VS.VSORRESU" Value="beats/min"/>
      <ItemData ItemOID="IT.VS.VSSTRESC" Value="79"/>
      <ItemData ItemOID="IT.VS.VSSTRESN" Value="79"/>
      <ItemData ItemOID="IT.VS.VSSTRESU" Value="beats/min"/>
      <ItemData ItemOID="IT.VS.VSREPNUM" Value="1"/>
      <ItemData ItemOID="IT.VS.VISITNUM" Value="201"/>
      <ItemData ItemOID="IT.VS.VISIT" Value="EARLY DISCONTINUATION RETRIEVAL"/>
      <ItemData ItemOID="IT.VS.EPOCH" Value="TREATMENT"/>
      <ItemData ItemOID="IT.VS.VSDTC" Value="2013-05-20"/>
      <ItemData ItemOID="IT.VS.VSDY" Value="172"/>
    </ItemGroupData>
    <ItemGroupData ItemGroupOID="IG.VS" data:ItemGroupDataSeq="28">
      <ItemData ItemOID="IT.VS.STUDYID" Value="CDISCPILOT01"/>
      <ItemData ItemOID="IT.VS.DOMAIN" Value="VS"/>
      <ItemData ItemOID="IT.VS.USUBJID" Value="CDISC001"/>
      <ItemData ItemOID="IT.VS.VSSEQ" Value="28"/>
      <ItemData ItemOID="IT.VS.VSTESTCD" Value="PULSE"/>
      <ItemData ItemOID="IT.VS.VSTEST" Value="Pulse Rate"/>
      <ItemData ItemOID="IT.VS.VSPOS" Value="STANDING"/>
      <ItemData ItemOID="IT.VS.VSORRES" Value="98"/>
      <ItemData ItemOID="IT.VS.VSORRESU" Value="beats/min"/>
      <ItemData ItemOID="IT.VS.VSSTRESC" Value="98"/>
      <ItemData ItemOID="IT.VS.VSSTRESN" Value="98"/>
      <ItemData ItemOID="IT.VS.VSSTRESU" Value="beats/min"/>
      <ItemData ItemOID="IT.VS.VSREPNUM" Value="2"/>
      <ItemData ItemOID="IT.VS.VISITNUM" Value="201"/>
      <ItemData ItemOID="IT.VS.VISIT" Value="EARLY DISCONTINUATION RETRIEVAL"/>
      <ItemData ItemOID="IT.VS.EPOCH" Value="TREATMENT"/>
      <ItemData ItemOID="IT.VS.VSDTC" Value="2013-05-20"/>
      <ItemData ItemOID="IT.VS.VSDY" Value="172"/>
    </ItemGroupData>
    <ItemGroupData ItemGroupOID="IG.VS" data:ItemGroupDataSeq="29">
      <ItemData ItemOID="IT.VS.STUDYID" Value="CDISCPILOT01"/>
      <ItemData ItemOID="IT.VS.DOMAIN" Value="VS"/>
      <ItemData ItemOID="IT.VS.USUBJID" Value="CDISC001"/>
      <ItemData ItemOID="IT.VS.VSSEQ" Value="29"/>
      <ItemData ItemOID="IT.VS.VSTESTCD" Value="PULSE"/>
      <ItemData ItemOID="IT.VS.VSTEST" Value="Pulse Rate"/>
      <ItemData ItemOID="IT.VS.VSPOS" Value="STANDING"/>
      <ItemData ItemOID="IT.VS.VSORRES" Value="94"/>
      <ItemData ItemOID="IT.VS.VSORRESU" Value="beats/min"/>
      <ItemData ItemOID="IT.VS.VSSTRESC" Value="94"/>
      <ItemData ItemOID="IT.VS.VSSTRESN" Value="94"/>
      <ItemData ItemOID="IT.VS.VSSTRESU" Value="beats/min"/>
      <ItemData ItemOID="IT.VS.VSREPNUM" Value="3"/>
      <ItemData ItemOID="IT.VS.VISITNUM" Value="201"/>
      <ItemData ItemOID="IT.VS.VISIT" Value="EARLY DISCONTINUATION RETRIEVAL"/>
      <ItemData ItemOID="IT.VS.EPOCH" Value="TREATMENT"/>
      <ItemData ItemOID="IT.VS.VSDTC" Value="2013-05-20"/>
      <ItemData ItemOID="IT.VS.VSDY" Value="172"/>
    </ItemGroupData>
    <ItemGroupData ItemGroupOID="IG.VS" data:ItemGroupDataSeq="30">
      <ItemData ItemOID="IT.VS.STUDYID" Value="CDISCPILOT01"/>
      <ItemData ItemOID="IT.VS.DOMAIN" Value="VS"/>
      <ItemData ItemOID="IT.VS.USUBJID" Value="CDISC001"/>
      <ItemData ItemOID="IT.VS.VSSEQ" Value="30"/>
      <ItemData ItemOID="IT.VS.VSTESTCD" Value="SYSBP"/>
      <ItemData ItemOID="IT.VS.VSTEST" Value="Systolic Blood Pressure"/>
      <ItemData ItemOID="IT.VS.VSPOS" Value="STANDING"/>
      <ItemData ItemOID="IT.VS.VSORRES" Value="137"/>
      <ItemData ItemOID="IT.VS.VSORRESU" Value="mmHg"/>
      <ItemData ItemOID="IT.VS.VSSTRESC" Value="137"/>
      <ItemData ItemOID="IT.VS.VSSTRESN" Value="137"/>
      <ItemData ItemOID="IT.VS.VSSTRESU" Value="mmHg"/>
      <ItemData ItemOID="IT.VS.VISITNUM" Value="1"/>
      <ItemData ItemOID="IT.VS.VISIT" Value="SCREENING 1"/>
      <ItemData ItemOID="IT.VS.EPOCH" Value="SCREENING"/>
      <ItemData ItemOID="IT.VS.VSDTC" Value="2012-11-23"/>
      <ItemData ItemOID="IT.VS.VSDY" Value="-7"/>
    </ItemGroupData>
    <ItemGroupData ItemGroupOID="IG.VS" data:ItemGroupDataSeq="31">
      <ItemData ItemOID="IT.VS.STUDYID" Value="CDISCPILOT01"/>
      <ItemData ItemOID="IT.VS.DOMAIN" Value="VS"/>
      <ItemData ItemOID="IT.VS.USUBJID" Value="CDISC001"/>
      <ItemData ItemOID="IT.VS.VSSEQ" Value="31"/>
      <ItemData ItemOID="IT.VS.VSTESTCD" Value="SYSBP"/>
      <ItemData ItemOID="IT.VS.VSTEST" Value="Systolic Blood Pressure"/>
      <ItemData ItemOID="IT.VS.VSPOS" Value="STANDING"/>
      <ItemData ItemOID="IT.VS.VSORRES" Value="137"/>
      <ItemData ItemOID="IT.VS.VSORRESU" Value="mmHg"/>
      <ItemData ItemOID="IT.VS.VSSTRESC" Value="137"/>
      <ItemData ItemOID="IT.VS.VSSTRESN" Value="137"/>
      <ItemData ItemOID="IT.VS.VSSTRESU" Value="mmHg"/>
      <ItemData ItemOID="IT.VS.VISITNUM" Value="2"/>
      <ItemData ItemOID="IT.VS.VISIT" Value="SCREENING 2"/>
      <ItemData ItemOID="IT.VS.EPOCH" Value="SCREENING"/>
      <ItemData ItemOID="IT.VS.VSDTC" Value="2012-11-28"/>
      <ItemData ItemOID="IT.VS.VSDY" Value="-2"/>
    </ItemGroupData>
    <ItemGroupData ItemGroupOID="IG.VS" data:ItemGroupDataSeq="32">
      <ItemData ItemOID="IT.VS.STUDYID" Value="CDISCPILOT01"/>
      <ItemData ItemOID="IT.VS.DOMAIN" Value="VS"/>
      <ItemData ItemOID="IT.VS.USUBJID" Value="CDISC001"/>
      <ItemData ItemOID="IT.VS.VSSEQ" Value="32"/>
      <ItemData ItemOID="IT.VS.VSTESTCD" Value="SYSBP"/>
      <ItemData ItemOID="IT.VS.VSTEST" Value="Systolic Blood Pressure"/>
      <ItemData ItemOID="IT.VS.VSPOS" Value="STANDING"/>
      <ItemData ItemOID="IT.VS.VSORRES" Value="130"/>
      <ItemData ItemOID="IT.VS.VSORRESU" Value="mmHg"/>
      <ItemData ItemOID="IT.VS.VSSTRESC" Value="130"/>
      <ItemData ItemOID="IT.VS.VSSTRESN" Value="130"/>
      <ItemData ItemOID="IT.VS.VSSTRESU" Value="mmHg"/>
      <ItemData ItemOID="IT.VS.VSLOBXFL" Value="Y"/>
      <ItemData ItemOID="IT.VS.VISITNUM" Value="3"/>
      <ItemData ItemOID="IT.VS.VISIT" Value="BASELINE"/>
      <ItemData ItemOID="IT.VS.EPOCH" Value="SCREENING"/>
      <ItemData ItemOID="IT.VS.VSDTC" Value="2012-11-30"/>
      <ItemData ItemOID="IT.VS.VSDY" Value="1"/>
    </ItemGroupData>
    <ItemGroupData ItemGroupOID="IG.VS" data:ItemGroupDataSeq="33">
      <ItemData ItemOID="IT.VS.STUDYID" Value="CDISCPILOT01"/>
      <ItemData ItemOID="IT.VS.DOMAIN" Value="VS"/>
      <ItemData ItemOID="IT.VS.USUBJID" Value="CDISC001"/>
      <ItemData ItemOID="IT.VS.VSSEQ" Value="33"/>
      <ItemData ItemOID="IT.VS.VSTESTCD" Value="SYSBP"/>
      <ItemData ItemOID="IT.VS.VSTEST" Value="Systolic Blood Pressure"/>
      <ItemData ItemOID="IT.VS.VSPOS" Value="STANDING"/>
      <ItemData ItemOID="IT.VS.VSORRES" Value="122"/>
      <ItemData ItemOID="IT.VS.VSORRESU" Value="mmHg"/>
      <ItemData ItemOID="IT.VS.VSSTRESC" Value="122"/>
      <ItemData ItemOID="IT.VS.VSSTRESN" Value="122"/>
      <ItemData ItemOID="IT.VS.VSSTRESU" Value="mmHg"/>
      <ItemData ItemOID="IT.VS.VISITNUM" Value="4"/>
      <ItemData ItemOID="IT.VS.VISIT" Value="WEEK 2"/>
      <ItemData ItemOID="IT.VS.EPOCH" Value="TREATMENT"/>
      <ItemData ItemOID="IT.VS.VSDTC" Value="2012-12-13"/>
      <ItemData ItemOID="IT.VS.VSDY" Value="14"/>
    </ItemGroupData>
    <ItemGroupData ItemGroupOID="IG.VS" data:ItemGroupDataSeq="34">
      <ItemData ItemOID="IT.VS.STUDYID" Value="CDISCPILOT01"/>
      <ItemData ItemOID="IT.VS.DOMAIN" Value="VS"/>
      <ItemData ItemOID="IT.VS.USUBJID" Value="CDISC001"/>
      <ItemData ItemOID="IT.VS.VSSEQ" Value="34"/>
      <ItemData ItemOID="IT.VS.VSTESTCD" Value="SYSBP"/>
      <ItemData ItemOID="IT.VS.VSTEST" Value="Systolic Blood Pressure"/>
      <ItemData ItemOID="IT.VS.VSPOS" Value="STANDING"/>
      <ItemData ItemOID="IT.VS.VSORRES" Value="115"/>
      <ItemData ItemOID="IT.VS.VSORRESU" Value="mmHg"/>
      <ItemData ItemOID="IT.VS.VSSTRESC" Value="115"/>
      <ItemData ItemOID="IT.VS.VSSTRESN" Value="115"/>
      <ItemData ItemOID="IT.VS.VSSTRESU" Value="mmHg"/>
      <ItemData ItemOID="IT.VS.VISITNUM" Value="5"/>
      <ItemData ItemOID="IT.VS.VISIT" Value="WEEK 4"/>
      <ItemData ItemOID="IT.VS.EPOCH" Value="TREATMENT"/>
      <ItemData ItemOID="IT.VS.VSDTC" Value="2012-12-26"/>
      <ItemData ItemOID="IT.VS.VSDY" Value="27"/>
    </ItemGroupData>
    <ItemGroupData ItemGroupOID="IG.VS" data:ItemGroupDataSeq="35">
      <ItemData ItemOID="IT.VS.STUDYID" Value="CDISCPILOT01"/>
      <ItemData ItemOID="IT.VS.DOMAIN" Value="VS"/>
      <ItemData ItemOID="IT.VS.USUBJID" Value="CDISC001"/>
      <ItemData ItemOID="IT.VS.VSSEQ" Value="35"/>
      <ItemData ItemOID="IT.VS.VSTESTCD" Value="SYSBP"/>
      <ItemData ItemOID="IT.VS.VSTEST" Value="Systolic Blood Pressure"/>
      <ItemData ItemOID="IT.VS.VSPOS" Value="SUPINE"/>
      <ItemData ItemOID="IT.VS.VSORRES" Value="131"/>
      <ItemData ItemOID="IT.VS.VSORRESU" Value="mmHg"/>
      <ItemData ItemOID="IT.VS.VSSTRESC" Value="131"/>
      <ItemData ItemOID="IT.VS.VSSTRESN" Value="131"/>
      <ItemData ItemOID="IT.VS.VSSTRESU" Value="mmHg"/>
      <ItemData ItemOID="IT.VS.VSREPNUM" Value="1"/>
      <ItemData ItemOID="IT.VS.VISITNUM" Value="7"/>
      <ItemData ItemOID="IT.VS.VISIT" Value="WEEK 6"/>
      <ItemData ItemOID="IT.VS.EPOCH" Value="TREATMENT"/>
      <ItemData ItemOID="IT.VS.VSDTC" Value="2013-01-10"/>
      <ItemData ItemOID="IT.VS.VSDY" Value="42"/>
    </ItemGroupData>
    <ItemGroupData ItemGroupOID="IG.VS" data:ItemGroupDataSeq="36">
      <ItemData ItemOID="IT.VS.STUDYID" Value="CDISCPILOT01"/>
      <ItemData ItemOID="IT.VS.DOMAIN" Value="VS"/>
      <ItemData ItemOID="IT.VS.USUBJID" Value="CDISC001"/>
      <ItemData ItemOID="IT.VS.VSSEQ" Value="36"/>
      <ItemData ItemOID="IT.VS.VSTESTCD" Value="SYSBP"/>
      <ItemData ItemOID="IT.VS.VSTEST" Value="Systolic Blood Pressure"/>
      <ItemData ItemOID="IT.VS.VSPOS" Value="STANDING"/>
      <ItemData ItemOID="IT.VS.VSORRES" Value="107"/>
      <ItemData ItemOID="IT.VS.VSORRESU" Value="mmHg"/>
      <ItemData ItemOID="IT.VS.VSSTRESC" Value="107"/>
      <ItemData ItemOID="IT.VS.VSSTRESN" Value="107"/>
      <ItemData ItemOID="IT.VS.VSSTRESU" Value="mmHg"/>
      <ItemData ItemOID="IT.VS.VSREPNUM" Value="2"/>
      <ItemData ItemOID="IT.VS.VISITNUM" Value="7"/>
      <ItemData ItemOID="IT.VS.VISIT" Value="WEEK 6"/>
      <ItemData ItemOID="IT.VS.EPOCH" Value="TREATMENT"/>
      <ItemData ItemOID="IT.VS.VSDTC" Value="2013-01-10"/>
      <ItemData ItemOID="IT.VS.VSDY" Value="42"/>
    </ItemGroupData>
    <ItemGroupData ItemGroupOID="IG.VS" data:ItemGroupDataSeq="37">
      <ItemData ItemOID="IT.VS.STUDYID" Value="CDISCPILOT01"/>
      <ItemData ItemOID="IT.VS.DOMAIN" Value="VS"/>
      <ItemData ItemOID="IT.VS.USUBJID" Value="CDISC001"/>
      <ItemData ItemOID="IT.VS.VSSEQ" Value="37"/>
      <ItemData ItemOID="IT.VS.VSTESTCD" Value="SYSBP"/>
      <ItemData ItemOID="IT.VS.VSTEST" Value="Systolic Blood Pressure"/>
      <ItemData ItemOID="IT.VS.VSPOS" Value="STANDING"/>
      <ItemData ItemOID="IT.VS.VSORRES" Value="104"/>
      <ItemData ItemOID="IT.VS.VSORRESU" Value="mmHg"/>
      <ItemData ItemOID="IT.VS.VSSTRESC" Value="104"/>
      <ItemData ItemOID="IT.VS.VSSTRESN" Value="104"/>
      <ItemData ItemOID="IT.VS.VSSTRESU" Value="mmHg"/>
      <ItemData ItemOID="IT.VS.VSREPNUM" Value="3"/>
      <ItemData ItemOID="IT.VS.VISITNUM" Value="7"/>
      <ItemData ItemOID="IT.VS.VISIT" Value="WEEK 6"/>
      <ItemData ItemOID="IT.VS.EPOCH" Value="TREATMENT"/>
      <ItemData ItemOID="IT.VS.VSDTC" Value="2013-01-10"/>
      <ItemData ItemOID="IT.VS.VSDY" Value="42"/>
    </ItemGroupData>
    <ItemGroupData ItemGroupOID="IG.VS" data:ItemGroupDataSeq="38">
      <ItemData ItemOID="IT.VS.STUDYID" Value="CDISCPILOT01"/>
      <ItemData ItemOID="IT.VS.DOMAIN" Value="VS"/>
      <ItemData ItemOID="IT.VS.USUBJID" Value="CDISC001"/>
      <ItemData ItemOID="IT.VS.VSSEQ" Value="38"/>
      <ItemData ItemOID="IT.VS.VSTESTCD" Value="SYSBP"/>
      <ItemData ItemOID="IT.VS.VSTEST" Value="Systolic Blood Pressure"/>
      <ItemData ItemOID="IT.VS.VSPOS" Value="SUPINE"/>
      <ItemData ItemOID="IT.VS.VSORRES" Value="123"/>
      <ItemData ItemOID="IT.VS.VSORRESU" Value="mmHg"/>
      <ItemData ItemOID="IT.VS.VSSTRESC" Value="123"/>
      <ItemData ItemOID="IT.VS.VSSTRESN" Value="123"/>
      <ItemData ItemOID="IT.VS.VSSTRESU" Value="mmHg"/>
      <ItemData ItemOID="IT.VS.VSREPNUM" Value="1"/>
      <ItemData ItemOID="IT.VS.VISITNUM" Value="8"/>
      <ItemData ItemOID="IT.VS.VISIT" Value="WEEK 8"/>
      <ItemData ItemOID="IT.VS.EPOCH" Value="TREATMENT"/>
      <ItemData ItemOID="IT.VS.VSDTC" Value="2013-01-23"/>
      <ItemData ItemOID="IT.VS.VSDY" Value="55"/>
    </ItemGroupData>
    <ItemGroupData ItemGroupOID="IG.VS" data:ItemGroupDataSeq="39">
      <ItemData ItemOID="IT.VS.STUDYID" Value="CDISCPILOT01"/>
      <ItemData ItemOID="IT.VS.DOMAIN" Value="VS"/>
      <ItemData ItemOID="IT.VS.USUBJID" Value="CDISC001"/>
      <ItemData ItemOID="IT.VS.VSSEQ" Value="39"/>
      <ItemData ItemOID="IT.VS.VSTESTCD" Value="SYSBP"/>
      <ItemData ItemOID="IT.VS.VSTEST" Value="Systolic Blood Pressure"/>
      <ItemData ItemOID="IT.VS.VSPOS" Value="STANDING"/>
      <ItemData ItemOID="IT.VS.VSORRES" Value="113"/>
      <ItemData ItemOID="IT.VS.VSORRESU" Value="mmHg"/>
      <ItemData ItemOID="IT.VS.VSSTRESC" Value="113"/>
      <ItemData ItemOID="IT.VS.VSSTRESN" Value="113"/>
      <ItemData ItemOID="IT.VS.VSSTRESU" Value="mmHg"/>
      <ItemData ItemOID="IT.VS.VSREPNUM" Value="2"/>
      <ItemData ItemOID="IT.VS.VISITNUM" Value="8"/>
      <ItemData ItemOID="IT.VS.VISIT" Value="WEEK 8"/>
      <ItemData ItemOID="IT.VS.EPOCH" Value="TREATMENT"/>
      <ItemData ItemOID="IT.VS.VSDTC" Value="2013-01-23"/>
      <ItemData ItemOID="IT.VS.VSDY" Value="55"/>
    </ItemGroupData>
    <ItemGroupData ItemGroupOID="IG.VS" data:ItemGroupDataSeq="40">
      <ItemData ItemOID="IT.VS.STUDYID" Value="CDISCPILOT01"/>
      <ItemData ItemOID="IT.VS.DOMAIN" Value="VS"/>
      <ItemData ItemOID="IT.VS.USUBJID" Value="CDISC001"/>
      <ItemData ItemOID="IT.VS.VSSEQ" Value="40"/>
      <ItemData ItemOID="IT.VS.VSTESTCD" Value="SYSBP"/>
      <ItemData ItemOID="IT.VS.VSTEST" Value="Systolic Blood Pressure"/>
      <ItemData ItemOID="IT.VS.VSPOS" Value="STANDING"/>
      <ItemData ItemOID="IT.VS.VSORRES" Value="98"/>
      <ItemData ItemOID="IT.VS.VSORRESU" Value="mmHg"/>
      <ItemData ItemOID="IT.VS.VSSTRESC" Value="98"/>
      <ItemData ItemOID="IT.VS.VSSTRESN" Value="98"/>
      <ItemData ItemOID="IT.VS.VSSTRESU" Value="mmHg"/>
      <ItemData ItemOID="IT.VS.VSREPNUM" Value="3"/>
      <ItemData ItemOID="IT.VS.VISITNUM" Value="8"/>
      <ItemData ItemOID="IT.VS.VISIT" Value="WEEK 8"/>
      <ItemData ItemOID="IT.VS.EPOCH" Value="TREATMENT"/>
      <ItemData ItemOID="IT.VS.VSDTC" Value="2013-01-23"/>
      <ItemData ItemOID="IT.VS.VSDY" Value="55"/>
    </ItemGroupData>
    <ItemGroupData ItemGroupOID="IG.VS" data:ItemGroupDataSeq="41">
      <ItemData ItemOID="IT.VS.STUDYID" Value="CDISCPILOT01"/>
      <ItemData ItemOID="IT.VS.DOMAIN" Value="VS"/>
      <ItemData ItemOID="IT.VS.USUBJID" Value="CDISC001"/>
      <ItemData ItemOID="IT.VS.VSSEQ" Value="41"/>
      <ItemData ItemOID="IT.VS.VSTESTCD" Value="SYSBP"/>
      <ItemData ItemOID="IT.VS.VSTEST" Value="Systolic Blood Pressure"/>
      <ItemData ItemOID="IT.VS.VSPOS" Value="SUPINE"/>
      <ItemData ItemOID="IT.VS.VSORRES" Value="99"/>
      <ItemData ItemOID="IT.VS.VSORRESU" Value="mmHg"/>
      <ItemData ItemOID="IT.VS.VSSTRESC" Value="99"/>
      <ItemData ItemOID="IT.VS.VSSTRESN" Value="99"/>
      <ItemData ItemOID="IT.VS.VSSTRESU" Value="mmHg"/>
      <ItemData ItemOID="IT.VS.VSREPNUM" Value="1"/>
      <ItemData ItemOID="IT.VS.VISITNUM" Value="201"/>
      <ItemData ItemOID="IT.VS.VISIT" Value="EARLY DISCONTINUATION RETRIEVAL"/>
      <ItemData ItemOID="IT.VS.EPOCH" Value="TREATMENT"/>
      <ItemData ItemOID="IT.VS.VSDTC" Value="2013-05-20"/>
      <ItemData ItemOID="IT.VS.VSDY" Value="172"/>
    </ItemGroupData>
    <ItemGroupData ItemGroupOID="IG.VS" data:ItemGroupDataSeq="42">
      <ItemData ItemOID="IT.VS.STUDYID" Value="CDISCPILOT01"/>
      <ItemData ItemOID="IT.VS.DOMAIN" Value="VS"/>
      <ItemData ItemOID="IT.VS.USUBJID" Value="CDISC001"/>
      <ItemData ItemOID="IT.VS.VSSEQ" Value="42"/>
      <ItemData ItemOID="IT.VS.VSTESTCD" Value="SYSBP"/>
      <ItemData ItemOID="IT.VS.VSTEST" Value="Systolic Blood Pressure"/>
      <ItemData ItemOID="IT.VS.VSPOS" Value="STANDING"/>
      <ItemData ItemOID="IT.VS.VSORRES" Value="99"/>
      <ItemData ItemOID="IT.VS.VSORRESU" Value="mmHg"/>
      <ItemData ItemOID="IT.VS.VSSTRESC" Value="99"/>
      <ItemData ItemOID="IT.VS.VSSTRESN" Value="99"/>
      <ItemData ItemOID="IT.VS.VSSTRESU" Value="mmHg"/>
      <ItemData ItemOID="IT.VS.VSREPNUM" Value="2"/>
      <ItemData ItemOID="IT.VS.VISITNUM" Value="201"/>
      <ItemData ItemOID="IT.VS.VISIT" Value="EARLY DISCONTINUATION RETRIEVAL"/>
      <ItemData ItemOID="IT.VS.EPOCH" Value="TREATMENT"/>
      <ItemData ItemOID="IT.VS.VSDTC" Value="2013-05-20"/>
      <ItemData ItemOID="IT.VS.VSDY" Value="172"/>
    </ItemGroupData>
    <ItemGroupData ItemGroupOID="IG.VS" data:ItemGroupDataSeq="43">
      <ItemData ItemOID="IT.VS.STUDYID" Value="CDISCPILOT01"/>
      <ItemData ItemOID="IT.VS.DOMAIN" Value="VS"/>
      <ItemData ItemOID="IT.VS.USUBJID" Value="CDISC001"/>
      <ItemData ItemOID="IT.VS.VSSEQ" Value="43"/>
      <ItemData ItemOID="IT.VS.VSTESTCD" Value="SYSBP"/>
      <ItemData ItemOID="IT.VS.VSTEST" Value="Systolic Blood Pressure"/>
      <ItemData ItemOID="IT.VS.VSPOS" Value="STANDING"/>
      <ItemData ItemOID="IT.VS.VSORRES" Value="99"/>
      <ItemData ItemOID="IT.VS.VSORRESU" Value="mmHg"/>
      <ItemData ItemOID="IT.VS.VSSTRESC" Value="99"/>
      <ItemData ItemOID="IT.VS.VSSTRESN" Value="99"/>
      <ItemData ItemOID="IT.VS.VSSTRESU" Value="mmHg"/>
      <ItemData ItemOID="IT.VS.VSREPNUM" Value="3"/>
      <ItemData ItemOID="IT.VS.VISITNUM" Value="201"/>
      <ItemData ItemOID="IT.VS.VISIT" Value="EARLY DISCONTINUATION RETRIEVAL"/>
      <ItemData ItemOID="IT.VS.EPOCH" Value="TREATMENT"/>
      <ItemData ItemOID="IT.VS.VSDTC" Value="2013-05-20"/>
      <ItemData ItemOID="IT.VS.VSDY" Value="172"/>
    </ItemGroupData>
    <ItemGroupData ItemGroupOID="IG.VS" data:ItemGroupDataSeq="44">
      <ItemData ItemOID="IT.VS.STUDYID" Value="CDISCPILOT01"/>
      <ItemData ItemOID="IT.VS.DOMAIN" Value="VS"/>
      <ItemData ItemOID="IT.VS.USUBJID" Value="CDISC001"/>
      <ItemData ItemOID="IT.VS.VSSEQ" Value="44"/>
      <ItemData ItemOID="IT.VS.VSTESTCD" Value="TEMP"/>
      <ItemData ItemOID="IT.VS.VSTEST" Value="Temperature"/>
      <ItemData ItemOID="IT.VS.VSORRES" Value="97.4"/>
      <ItemData ItemOID="IT.VS.VSORRESU" Value="F"/>
      <ItemData ItemOID="IT.VS.VSSTRESC" Value="36.33"/>
      <ItemData ItemOID="IT.VS.VSSTRESN" Value="36.33"/>
      <ItemData ItemOID="IT.VS.VSSTRESU" Value="C"/>
      <ItemData ItemOID="IT.VS.VSLOC" Value="ORAL CAVITY"/>
      <ItemData ItemOID="IT.VS.VISITNUM" Value="1"/>
      <ItemData ItemOID="IT.VS.VISIT" Value="SCREENING 1"/>
      <ItemData ItemOID="IT.VS.EPOCH" Value="SCREENING"/>
      <ItemData ItemOID="IT.VS.VSDTC" Value="2012-11-23"/>
      <ItemData ItemOID="IT.VS.VSDY" Value="-7"/>
    </ItemGroupData>
    <ItemGroupData ItemGroupOID="IG.VS" data:ItemGroupDataSeq="45">
      <ItemData ItemOID="IT.VS.STUDYID" Value="CDISCPILOT01"/>
      <ItemData ItemOID="IT.VS.DOMAIN" Value="VS"/>
      <ItemData ItemOID="IT.VS.USUBJID" Value="CDISC001"/>
      <ItemData ItemOID="IT.VS.VSSEQ" Value="45"/>
      <ItemData ItemOID="IT.VS.VSTESTCD" Value="TEMP"/>
      <ItemData ItemOID="IT.VS.VSTEST" Value="Temperature"/>
      <ItemData ItemOID="IT.VS.VSORRES" Value="97.2"/>
      <ItemData ItemOID="IT.VS.VSORRESU" Value="F"/>
      <ItemData ItemOID="IT.VS.VSSTRESC" Value="36.22"/>
      <ItemData ItemOID="IT.VS.VSSTRESN" Value="36.22"/>
      <ItemData ItemOID="IT.VS.VSSTRESU" Value="C"/>
      <ItemData ItemOID="IT.VS.VSLOC" Value="ORAL CAVITY"/>
      <ItemData ItemOID="IT.VS.VISITNUM" Value="2"/>
      <ItemData ItemOID="IT.VS.VISIT" Value="SCREENING 2"/>
      <ItemData ItemOID="IT.VS.EPOCH" Value="SCREENING"/>
      <ItemData ItemOID="IT.VS.VSDTC" Value="2012-11-28"/>
      <ItemData ItemOID="IT.VS.VSDY" Value="-2"/>
    </ItemGroupData>
    <ItemGroupData ItemGroupOID="IG.VS" data:ItemGroupDataSeq="46">
      <ItemData ItemOID="IT.VS.STUDYID" Value="CDISCPILOT01"/>
      <ItemData ItemOID="IT.VS.DOMAIN" Value="VS"/>
      <ItemData ItemOID="IT.VS.USUBJID" Value="CDISC001"/>
      <ItemData ItemOID="IT.VS.VSSEQ" Value="46"/>
      <ItemData ItemOID="IT.VS.VSTESTCD" Value="TEMP"/>
      <ItemData ItemOID="IT.VS.VSTEST" Value="Temperature"/>
      <ItemData ItemOID="IT.VS.VSORRES" Value="98.0"/>
      <ItemData ItemOID="IT.VS.VSORRESU" Value="F"/>
      <ItemData ItemOID="IT.VS.VSSTRESC" Value="36.67"/>
      <ItemData ItemOID="IT.VS.VSSTRESN" Value="36.67"/>
      <ItemData ItemOID="IT.VS.VSSTRESU" Value="C"/>
      <ItemData ItemOID="IT.VS.VSLOC" Value="ORAL CAVITY"/>
      <ItemData ItemOID="IT.VS.VSLOBXFL" Value="Y"/>
      <ItemData ItemOID="IT.VS.VISITNUM" Value="3"/>
      <ItemData ItemOID="IT.VS.VISIT" Value="BASELINE"/>
      <ItemData ItemOID="IT.VS.EPOCH" Value="SCREENING"/>
      <ItemData ItemOID="IT.VS.VSDTC" Value="2012-11-30"/>
      <ItemData ItemOID="IT.VS.VSDY" Value="1"/>
    </ItemGroupData>
    <ItemGroupData ItemGroupOID="IG.VS" data:ItemGroupDataSeq="47">
      <ItemData ItemOID="IT.VS.STUDYID" Value="CDISCPILOT01"/>
      <ItemData ItemOID="IT.VS.DOMAIN" Value="VS"/>
      <ItemData ItemOID="IT.VS.USUBJID" Value="CDISC001"/>
      <ItemData ItemOID="IT.VS.VSSEQ" Value="47"/>
      <ItemData ItemOID="IT.VS.VSTESTCD" Value="TEMP"/>
      <ItemData ItemOID="IT.VS.VSTEST" Value="Temperature"/>
      <ItemData ItemOID="IT.VS.VSORRES" Value="98.0"/>
      <ItemData ItemOID="IT.VS.VSORRESU" Value="F"/>
      <ItemData ItemOID="IT.VS.VSSTRESC" Value="36.67"/>
      <ItemData ItemOID="IT.VS.VSSTRESN" Value="36.67"/>
      <ItemData ItemOID="IT.VS.VSSTRESU" Value="C"/>
      <ItemData ItemOID="IT.VS.VSLOC" Value="ORAL CAVITY"/>
      <ItemData ItemOID="IT.VS.VISITNUM" Value="4"/>
      <ItemData ItemOID="IT.VS.VISIT" Value="WEEK 2"/>
      <ItemData ItemOID="IT.VS.EPOCH" Value="TREATMENT"/>
      <ItemData ItemOID="IT.VS.VSDTC" Value="2012-12-13"/>
      <ItemData ItemOID="IT.VS.VSDY" Value="14"/>
    </ItemGroupData>
    <ItemGroupData ItemGroupOID="IG.VS" data:ItemGroupDataSeq="48">
      <ItemData ItemOID="IT.VS.STUDYID" Value="CDISCPILOT01"/>
      <ItemData ItemOID="IT.VS.DOMAIN" Value="VS"/>
      <ItemData ItemOID="IT.VS.USUBJID" Value="CDISC001"/>
      <ItemData ItemOID="IT.VS.VSSEQ" Value="48"/>
      <ItemData ItemOID="IT.VS.VSTESTCD" Value="TEMP"/>
      <ItemData ItemOID="IT.VS.VSTEST" Value="Temperature"/>
      <ItemData ItemOID="IT.VS.VSORRES" Value="97.7"/>
      <ItemData ItemOID="IT.VS.VSORRESU" Value="F"/>
      <ItemData ItemOID="IT.VS.VSSTRESC" Value="36.5"/>
      <ItemData ItemOID="IT.VS.VSSTRESN" Value="36.5"/>
      <ItemData ItemOID="IT.VS.VSSTRESU" Value="C"/>
      <ItemData ItemOID="IT.VS.VSLOC" Value="ORAL CAVITY"/>
      <ItemData ItemOID="IT.VS.VISITNUM" Value="5"/>
      <ItemData ItemOID="IT.VS.VISIT" Value="WEEK 4"/>
      <ItemData ItemOID="IT.VS.EPOCH" Value="TREATMENT"/>
      <ItemData ItemOID="IT.VS.VSDTC" Value="2012-12-26"/>
      <ItemData ItemOID="IT.VS.VSDY" Value="27"/>
    </ItemGroupData>
    <ItemGroupData ItemGroupOID="IG.VS" data:ItemGroupDataSeq="49">
      <ItemData ItemOID="IT.VS.STUDYID" Value="CDISCPILOT01"/>
      <ItemData ItemOID="IT.VS.DOMAIN" Value="VS"/>
      <ItemData ItemOID="IT.VS.USUBJID" Value="CDISC001"/>
      <ItemData ItemOID="IT.VS.VSSEQ" Value="49"/>
      <ItemData ItemOID="IT.VS.VSTESTCD" Value="TEMP"/>
      <ItemData ItemOID="IT.VS.VSTEST" Value="Temperature"/>
      <ItemData ItemOID="IT.VS.VSORRES" Value="97.6"/>
      <ItemData ItemOID="IT.VS.VSORRESU" Value="F"/>
      <ItemData ItemOID="IT.VS.VSSTRESC" Value="36.44"/>
      <ItemData ItemOID="IT.VS.VSSTRESN" Value="36.44"/>
      <ItemData ItemOID="IT.VS.VSSTRESU" Value="C"/>
      <ItemData ItemOID="IT.VS.VSLOC" Value="ORAL CAVITY"/>
      <ItemData ItemOID="IT.VS.VISITNUM" Value="7"/>
      <ItemData ItemOID="IT.VS.VISIT" Value="WEEK 6"/>
      <ItemData ItemOID="IT.VS.EPOCH" Value="TREATMENT"/>
      <ItemData ItemOID="IT.VS.VSDTC" Value="2013-01-10"/>
      <ItemData ItemOID="IT.VS.VSDY" Value="42"/>
    </ItemGroupData>
    <ItemGroupData ItemGroupOID="IG.VS" data:ItemGroupDataSeq="50">
      <ItemData ItemOID="IT.VS.STUDYID" Value="CDISCPILOT01"/>
      <ItemData ItemOID="IT.VS.DOMAIN" Value="VS"/>
      <ItemData ItemOID="IT.VS.USUBJID" Value="CDISC001"/>
      <ItemData ItemOID="IT.VS.VSSEQ" Value="50"/>
      <ItemData ItemOID="IT.VS.VSTESTCD" Value="TEMP"/>
      <ItemData ItemOID="IT.VS.VSTEST" Value="Temperature"/>
      <ItemData ItemOID="IT.VS.VSORRES" Value="97.6"/>
      <ItemData ItemOID="IT.VS.VSORRESU" Value="F"/>
      <ItemData ItemOID="IT.VS.VSSTRESC" Value="36.44"/>
      <ItemData ItemOID="IT.VS.VSSTRESN" Value="36.44"/>
      <ItemData ItemOID="IT.VS.VSSTRESU" Value="C"/>
      <ItemData ItemOID="IT.VS.VSLOC" Value="ORAL CAVITY"/>
      <ItemData ItemOID="IT.VS.VISITNUM" Value="8"/>
      <ItemData ItemOID="IT.VS.VISIT" Value="WEEK 8"/>
      <ItemData ItemOID="IT.VS.EPOCH" Value="TREATMENT"/>
      <ItemData ItemOID="IT.VS.VSDTC" Value="2013-01-23"/>
      <ItemData ItemOID="IT.VS.VSDY" Value="55"/>
    </ItemGroupData>
    <ItemGroupData ItemGroupOID="IG.VS" data:ItemGroupDataSeq="51">
      <ItemData ItemOID="IT.VS.STUDYID" Value="CDISCPILOT01"/>
      <ItemData ItemOID="IT.VS.DOMAIN" Value="VS"/>
      <ItemData ItemOID="IT.VS.USUBJID" Value="CDISC001"/>
      <ItemData ItemOID="IT.VS.VSSEQ" Value="51"/>
      <ItemData ItemOID="IT.VS.VSTESTCD" Value="TEMP"/>
      <ItemData ItemOID="IT.VS.VSTEST" Value="Temperature"/>
      <ItemData ItemOID="IT.VS.VSORRES" Value="97.4"/>
      <ItemData ItemOID="IT.VS.VSORRESU" Value="F"/>
      <ItemData ItemOID="IT.VS.VSSTRESC" Value="36.33"/>
      <ItemData ItemOID="IT.VS.VSSTRESN" Value="36.33"/>
      <ItemData ItemOID="IT.VS.VSSTRESU" Value="C"/>
      <ItemData ItemOID="IT.VS.VSLOC" Value="ORAL CAVITY"/>
      <ItemData ItemOID="IT.VS.VISITNUM" Value="201"/>
      <ItemData ItemOID="IT.VS.VISIT" Value="EARLY DISCONTINUATION RETRIEVAL"/>
      <ItemData ItemOID="IT.VS.EPOCH" Value="TREATMENT"/>
      <ItemData ItemOID="IT.VS.VSDTC" Value="2013-05-20"/>
      <ItemData ItemOID="IT.VS.VSDY" Value="172"/>
    </ItemGroupData>
    <ItemGroupData ItemGroupOID="IG.VS" data:ItemGroupDataSeq="52">
      <ItemData ItemOID="IT.VS.STUDYID" Value="CDISCPILOT01"/>
      <ItemData ItemOID="IT.VS.DOMAIN" Value="VS"/>
      <ItemData ItemOID="IT.VS.USUBJID" Value="CDISC001"/>
      <ItemData ItemOID="IT.VS.VSSEQ" Value="52"/>
      <ItemData ItemOID="IT.VS.VSTESTCD" Value="WEIGHT"/>
      <ItemData ItemOID="IT.VS.VSTEST" Value="Weight"/>
      <ItemData ItemOID="IT.VS.VSORRES" Value="173.5"/>
      <ItemData ItemOID="IT.VS.VSORRESU" Value="LB"/>
      <ItemData ItemOID="IT.VS.VSSTRESC" Value="78.7"/>
      <ItemData ItemOID="IT.VS.VSSTRESN" Value="78.7"/>
      <ItemData ItemOID="IT.VS.VSSTRESU" Value="kg"/>
      <ItemData ItemOID="IT.VS.VISITNUM" Value="1"/>
      <ItemData ItemOID="IT.VS.VISIT" Value="SCREENING 1"/>
      <ItemData ItemOID="IT.VS.EPOCH" Value="SCREENING"/>
      <ItemData ItemOID="IT.VS.VSDTC" Value="2012-11-23"/>
      <ItemData ItemOID="IT.VS.VSDY" Value="-7"/>
    </ItemGroupData>
    <ItemGroupData ItemGroupOID="IG.VS" data:ItemGroupDataSeq="53">
      <ItemData ItemOID="IT.VS.STUDYID" Value="CDISCPILOT01"/>
      <ItemData ItemOID="IT.VS.DOMAIN" Value="VS"/>
      <ItemData ItemOID="IT.VS.USUBJID" Value="CDISC001"/>
      <ItemData ItemOID="IT.VS.VSSEQ" Value="53"/>
      <ItemData ItemOID="IT.VS.VSTESTCD" Value="WEIGHT"/>
      <ItemData ItemOID="IT.VS.VSTEST" Value="Weight"/>
      <ItemData ItemOID="IT.VS.VSORRES" Value="174.0"/>
      <ItemData ItemOID="IT.VS.VSORRESU" Value="LB"/>
      <ItemData ItemOID="IT.VS.VSSTRESC" Value="78.93"/>
      <ItemData ItemOID="IT.VS.VSSTRESN" Value="78.93"/>
      <ItemData ItemOID="IT.VS.VSSTRESU" Value="kg"/>
      <ItemData ItemOID="IT.VS.VSLOBXFL" Value="Y"/>
      <ItemData ItemOID="IT.VS.VISITNUM" Value="3"/>
      <ItemData ItemOID="IT.VS.VISIT" Value="BASELINE"/>
      <ItemData ItemOID="IT.VS.EPOCH" Value="SCREENING"/>
      <ItemData ItemOID="IT.VS.VSDTC" Value="2012-11-30"/>
      <ItemData ItemOID="IT.VS.VSDY" Value="1"/>
    </ItemGroupData>
    <ItemGroupData ItemGroupOID="IG.VS" data:ItemGroupDataSeq="54">
      <ItemData ItemOID="IT.VS.STUDYID" Value="CDISCPILOT01"/>
      <ItemData ItemOID="IT.VS.DOMAIN" Value="VS"/>
      <ItemData ItemOID="IT.VS.USUBJID" Value="CDISC001"/>
      <ItemData ItemOID="IT.VS.VSSEQ" Value="54"/>
      <ItemData ItemOID="IT.VS.VSTESTCD" Value="WEIGHT"/>
      <ItemData ItemOID="IT.VS.VSTEST" Value="Weight"/>
      <ItemData ItemOID="IT.VS.VSORRES" Value="174.0"/>
      <ItemData ItemOID="IT.VS.VSORRESU" Value="LB"/>
      <ItemData ItemOID="IT.VS.VSSTRESC" Value="78.93"/>
      <ItemData ItemOID="IT.VS.VSSTRESN" Value="78.93"/>
      <ItemData ItemOID="IT.VS.VSSTRESU" Value="kg"/>
      <ItemData ItemOID="IT.VS.VISITNUM" Value="4"/>
      <ItemData ItemOID="IT.VS.VISIT" Value="WEEK 2"/>
      <ItemData ItemOID="IT.VS.EPOCH" Value="TREATMENT"/>
      <ItemData ItemOID="IT.VS.VSDTC" Value="2012-12-13"/>
      <ItemData ItemOID="IT.VS.VSDY" Value="14"/>
    </ItemGroupData>
    <ItemGroupData ItemGroupOID="IG.VS" data:ItemGroupDataSeq="55">
      <ItemData ItemOID="IT.VS.STUDYID" Value="CDISCPILOT01"/>
      <ItemData ItemOID="IT.VS.DOMAIN" Value="VS"/>
      <ItemData ItemOID="IT.VS.USUBJID" Value="CDISC001"/>
      <ItemData ItemOID="IT.VS.VSSEQ" Value="55"/>
      <ItemData ItemOID="IT.VS.VSTESTCD" Value="WEIGHT"/>
      <ItemData ItemOID="IT.VS.VSTEST" Value="Weight"/>
      <ItemData ItemOID="IT.VS.VSORRES" Value="173.0"/>
      <ItemData ItemOID="IT.VS.VSORRESU" Value="LB"/>
      <ItemData ItemOID="IT.VS.VSSTRESC" Value="78.47"/>
      <ItemData ItemOID="IT.VS.VSSTRESN" Value="78.47"/>
      <ItemData ItemOID="IT.VS.VSSTRESU" Value="kg"/>
      <ItemData ItemOID="IT.VS.VISITNUM" Value="5"/>
      <ItemData ItemOID="IT.VS.VISIT" Value="WEEK 4"/>
      <ItemData ItemOID="IT.VS.EPOCH" Value="TREATMENT"/>
      <ItemData ItemOID="IT.VS.VSDTC" Value="2012-12-26"/>
      <ItemData ItemOID="IT.VS.VSDY" Value="27"/>
    </ItemGroupData>
    <ItemGroupData ItemGroupOID="IG.VS" data:ItemGroupDataSeq="56">
      <ItemData ItemOID="IT.VS.STUDYID" Value="CDISCPILOT01"/>
      <ItemData ItemOID="IT.VS.DOMAIN" Value="VS"/>
      <ItemData ItemOID="IT.VS.USUBJID" Value="CDISC001"/>
      <ItemData ItemOID="IT.VS.VSSEQ" Value="56"/>
      <ItemData ItemOID="IT.VS.VSTESTCD" Value="WEIGHT"/>
      <ItemData ItemOID="IT.VS.VSTEST" Value="Weight"/>
      <ItemData ItemOID="IT.VS.VSORRES" Value="173.0"/>
      <ItemData ItemOID="IT.VS.VSORRESU" Value="LB"/>
      <ItemData ItemOID="IT.VS.VSSTRESC" Value="78.47"/>
      <ItemData ItemOID="IT.VS.VSSTRESN" Value="78.47"/>
      <ItemData ItemOID="IT.VS.VSSTRESU" Value="kg"/>
      <ItemData ItemOID="IT.VS.VISITNUM" Value="7"/>
      <ItemData ItemOID="IT.VS.VISIT" Value="WEEK 6"/>
      <ItemData ItemOID="IT.VS.EPOCH" Value="TREATMENT"/>
      <ItemData ItemOID="IT.VS.VSDTC" Value="2013-01-10"/>
      <ItemData ItemOID="IT.VS.VSDY" Value="42"/>
    </ItemGroupData>
    <ItemGroupData ItemGroupOID="IG.VS" data:ItemGroupDataSeq="57">
      <ItemData ItemOID="IT.VS.STUDYID" Value="CDISCPILOT01"/>
      <ItemData ItemOID="IT.VS.DOMAIN" Value="VS"/>
      <ItemData ItemOID="IT.VS.USUBJID" Value="CDISC001"/>
      <ItemData ItemOID="IT.VS.VSSEQ" Value="57"/>
      <ItemData ItemOID="IT.VS.VSTESTCD" Value="WEIGHT"/>
      <ItemData ItemOID="IT.VS.VSTEST" Value="Weight"/>
      <ItemData ItemOID="IT.VS.VSORRES" Value="173.0"/>
      <ItemData ItemOID="IT.VS.VSORRESU" Value="LB"/>
      <ItemData ItemOID="IT.VS.VSSTRESC" Value="78.47"/>
      <ItemData ItemOID="IT.VS.VSSTRESN" Value="78.47"/>
      <ItemData ItemOID="IT.VS.VSSTRESU" Value="kg"/>
      <ItemData ItemOID="IT.VS.VISITNUM" Value="8"/>
      <ItemData ItemOID="IT.VS.VISIT" Value="WEEK 8"/>
      <ItemData ItemOID="IT.VS.EPOCH" Value="TREATMENT"/>
      <ItemData ItemOID="IT.VS.VSDTC" Value="2013-01-23"/>
      <ItemData ItemOID="IT.VS.VSDY" Value="55"/>
    </ItemGroupData>
    <ItemGroupData ItemGroupOID="IG.VS" data:ItemGroupDataSeq="58">
      <ItemData ItemOID="IT.VS.STUDYID" Value="CDISCPILOT01"/>
      <ItemData ItemOID="IT.VS.DOMAIN" Value="VS"/>
      <ItemData ItemOID="IT.VS.USUBJID" Value="CDISC002"/>
      <ItemData ItemOID="IT.VS.VSSEQ" Value="1"/>
      <ItemData ItemOID="IT.VS.VSTESTCD" Value="DIABP"/>
      <ItemData ItemOID="IT.VS.VSTEST" Value="Diastolic Blood Pressure"/>
      <ItemData ItemOID="IT.VS.VSPOS" Value="STANDING"/>
      <ItemData ItemOID="IT.VS.VSORRES" Value="60"/>
      <ItemData ItemOID="IT.VS.VSORRESU" Value="mmHg"/>
      <ItemData ItemOID="IT.VS.VSSTRESC" Value="60"/>
      <ItemData ItemOID="IT.VS.VSSTRESN" Value="60"/>
      <ItemData ItemOID="IT.VS.VSSTRESU" Value="mmHg"/>
      <ItemData ItemOID="IT.VS.VISITNUM" Value="1"/>
      <ItemData ItemOID="IT.VS.VISIT" Value="SCREENING 1"/>
      <ItemData ItemOID="IT.VS.EPOCH" Value="SCREENING"/>
      <ItemData ItemOID="IT.VS.VSDTC" Value="2012-10-30"/>
      <ItemData ItemOID="IT.VS.VSDY" Value="-16"/>
    </ItemGroupData>
    <ItemGroupData ItemGroupOID="IG.VS" data:ItemGroupDataSeq="59">
      <ItemData ItemOID="IT.VS.STUDYID" Value="CDISCPILOT01"/>
      <ItemData ItemOID="IT.VS.DOMAIN" Value="VS"/>
      <ItemData ItemOID="IT.VS.USUBJID" Value="CDISC002"/>
      <ItemData ItemOID="IT.VS.VSSEQ" Value="2"/>
      <ItemData ItemOID="IT.VS.VSTESTCD" Value="DIABP"/>
      <ItemData ItemOID="IT.VS.VSTEST" Value="Diastolic Blood Pressure"/>
      <ItemData ItemOID="IT.VS.VSPOS" Value="STANDING"/>
      <ItemData ItemOID="IT.VS.VSORRES" Value="64"/>
      <ItemData ItemOID="IT.VS.VSORRESU" Value="mmHg"/>
      <ItemData ItemOID="IT.VS.VSSTRESC" Value="64"/>
      <ItemData ItemOID="IT.VS.VSSTRESN" Value="64"/>
      <ItemData ItemOID="IT.VS.VSSTRESU" Value="mmHg"/>
      <ItemData ItemOID="IT.VS.VISITNUM" Value="2"/>
      <ItemData ItemOID="IT.VS.VISIT" Value="SCREENING 2"/>
      <ItemData ItemOID="IT.VS.EPOCH" Value="SCREENING"/>
      <ItemData ItemOID="IT.VS.VSDTC" Value="2012-11-14"/>
      <ItemData ItemOID="IT.VS.VSDY" Value="-1"/>
    </ItemGroupData>
    <ItemGroupData ItemGroupOID="IG.VS" data:ItemGroupDataSeq="60">
      <ItemData ItemOID="IT.VS.STUDYID" Value="CDISCPILOT01"/>
      <ItemData ItemOID="IT.VS.DOMAIN" Value="VS"/>
      <ItemData ItemOID="IT.VS.USUBJID" Value="CDISC002"/>
      <ItemData ItemOID="IT.VS.VSSEQ" Value="3"/>
      <ItemData ItemOID="IT.VS.VSTESTCD" Value="DIABP"/>
      <ItemData ItemOID="IT.VS.VSTEST" Value="Diastolic Blood Pressure"/>
      <ItemData ItemOID="IT.VS.VSPOS" Value="STANDING"/>
      <ItemData ItemOID="IT.VS.VSORRES" Value="64"/>
      <ItemData ItemOID="IT.VS.VSORRESU" Value="mmHg"/>
      <ItemData ItemOID="IT.VS.VSSTRESC" Value="64"/>
      <ItemData ItemOID="IT.VS.VSSTRESN" Value="64"/>
      <ItemData ItemOID="IT.VS.VSSTRESU" Value="mmHg"/>
      <ItemData ItemOID="IT.VS.VSLOBXFL" Value="Y"/>
      <ItemData ItemOID="IT.VS.VISITNUM" Value="3"/>
      <ItemData ItemOID="IT.VS.VISIT" Value="BASELINE"/>
      <ItemData ItemOID="IT.VS.EPOCH" Value="SCREENING"/>
      <ItemData ItemOID="IT.VS.VSDTC" Value="2012-11-15"/>
      <ItemData ItemOID="IT.VS.VSDY" Value="1"/>
    </ItemGroupData>
    <ItemGroupData ItemGroupOID="IG.VS" data:ItemGroupDataSeq="61">
      <ItemData ItemOID="IT.VS.STUDYID" Value="CDISCPILOT01"/>
      <ItemData ItemOID="IT.VS.DOMAIN" Value="VS"/>
      <ItemData ItemOID="IT.VS.USUBJID" Value="CDISC002"/>
      <ItemData ItemOID="IT.VS.VSSEQ" Value="4"/>
      <ItemData ItemOID="IT.VS.VSTESTCD" Value="DIABP"/>
      <ItemData ItemOID="IT.VS.VSTEST" Value="Diastolic Blood Pressure"/>
      <ItemData ItemOID="IT.VS.VSPOS" Value="STANDING"/>
      <ItemData ItemOID="IT.VS.VSORRES" Value="58"/>
      <ItemData ItemOID="IT.VS.VSORRESU" Value="mmHg"/>
      <ItemData ItemOID="IT.VS.VSSTRESC" Value="58"/>
      <ItemData ItemOID="IT.VS.VSSTRESN" Value="58"/>
      <ItemData ItemOID="IT.VS.VSSTRESU" Value="mmHg"/>
      <ItemData ItemOID="IT.VS.VISITNUM" Value="4"/>
      <ItemData ItemOID="IT.VS.VISIT" Value="WEEK 2"/>
      <ItemData ItemOID="IT.VS.EPOCH" Value="TREATMENT"/>
      <ItemData ItemOID="IT.VS.VSDTC" Value="2012-11-28"/>
      <ItemData ItemOID="IT.VS.VSDY" Value="14"/>
    </ItemGroupData>
    <ItemGroupData ItemGroupOID="IG.VS" data:ItemGroupDataSeq="62">
      <ItemData ItemOID="IT.VS.STUDYID" Value="CDISCPILOT01"/>
      <ItemData ItemOID="IT.VS.DOMAIN" Value="VS"/>
      <ItemData ItemOID="IT.VS.USUBJID" Value="CDISC002"/>
      <ItemData ItemOID="IT.VS.VSSEQ" Value="5"/>
      <ItemData ItemOID="IT.VS.VSTESTCD" Value="DIABP"/>
      <ItemData ItemOID="IT.VS.VSTEST" Value="Diastolic Blood Pressure"/>
      <ItemData ItemOID="IT.VS.VSPOS" Value="STANDING"/>
      <ItemData ItemOID="IT.VS.VSORRES" Value="55"/>
      <ItemData ItemOID="IT.VS.VSORRESU" Value="mmHg"/>
      <ItemData ItemOID="IT.VS.VSSTRESC" Value="55"/>
      <ItemData ItemOID="IT.VS.VSSTRESN" Value="55"/>
      <ItemData ItemOID="IT.VS.VSSTRESU" Value="mmHg"/>
      <ItemData ItemOID="IT.VS.VISITNUM" Value="5"/>
      <ItemData ItemOID="IT.VS.VISIT" Value="WEEK 4"/>
      <ItemData ItemOID="IT.VS.EPOCH" Value="TREATMENT"/>
      <ItemData ItemOID="IT.VS.VSDTC" Value="2012-12-11"/>
      <ItemData ItemOID="IT.VS.VSDY" Value="27"/>
    </ItemGroupData>
    <ItemGroupData ItemGroupOID="IG.VS" data:ItemGroupDataSeq="63">
      <ItemData ItemOID="IT.VS.STUDYID" Value="CDISCPILOT01"/>
      <ItemData ItemOID="IT.VS.DOMAIN" Value="VS"/>
      <ItemData ItemOID="IT.VS.USUBJID" Value="CDISC002"/>
      <ItemData ItemOID="IT.VS.VSSEQ" Value="6"/>
      <ItemData ItemOID="IT.VS.VSTESTCD" Value="DIABP"/>
      <ItemData ItemOID="IT.VS.VSTEST" Value="Diastolic Blood Pressure"/>
      <ItemData ItemOID="IT.VS.VSPOS" Value="STANDING"/>
      <ItemData ItemOID="IT.VS.VSORRES" Value="60"/>
      <ItemData ItemOID="IT.VS.VSORRESU" Value="mmHg"/>
      <ItemData ItemOID="IT.VS.VSSTRESC" Value="60"/>
      <ItemData ItemOID="IT.VS.VSSTRESN" Value="60"/>
      <ItemData ItemOID="IT.VS.VSSTRESU" Value="mmHg"/>
      <ItemData ItemOID="IT.VS.VISITNUM" Value="7"/>
      <ItemData ItemOID="IT.VS.VISIT" Value="WEEK 6"/>
      <ItemData ItemOID="IT.VS.EPOCH" Value="TREATMENT"/>
      <ItemData ItemOID="IT.VS.VSDTC" Value="2012-12-25"/>
      <ItemData ItemOID="IT.VS.VSDY" Value="41"/>
    </ItemGroupData>
    <ItemGroupData ItemGroupOID="IG.VS" data:ItemGroupDataSeq="64">
      <ItemData ItemOID="IT.VS.STUDYID" Value="CDISCPILOT01"/>
      <ItemData ItemOID="IT.VS.DOMAIN" Value="VS"/>
      <ItemData ItemOID="IT.VS.USUBJID" Value="CDISC002"/>
      <ItemData ItemOID="IT.VS.VSSEQ" Value="7"/>
      <ItemData ItemOID="IT.VS.VSTESTCD" Value="DIABP"/>
      <ItemData ItemOID="IT.VS.VSTEST" Value="Diastolic Blood Pressure"/>
      <ItemData ItemOID="IT.VS.VSPOS" Value="SUPINE"/>
      <ItemData ItemOID="IT.VS.VSORRES" Value="59"/>
      <ItemData ItemOID="IT.VS.VSORRESU" Value="mmHg"/>
      <ItemData ItemOID="IT.VS.VSSTRESC" Value="59"/>
      <ItemData ItemOID="IT.VS.VSSTRESN" Value="59"/>
      <ItemData ItemOID="IT.VS.VSSTRESU" Value="mmHg"/>
      <ItemData ItemOID="IT.VS.VSREPNUM" Value="1"/>
      <ItemData ItemOID="IT.VS.VISITNUM" Value="8"/>
      <ItemData ItemOID="IT.VS.VISIT" Value="WEEK 8"/>
      <ItemData ItemOID="IT.VS.EPOCH" Value="TREATMENT"/>
      <ItemData ItemOID="IT.VS.VSDTC" Value="2013-01-08"/>
      <ItemData ItemOID="IT.VS.VSDY" Value="55"/>
    </ItemGroupData>
    <ItemGroupData ItemGroupOID="IG.VS" data:ItemGroupDataSeq="65">
      <ItemData ItemOID="IT.VS.STUDYID" Value="CDISCPILOT01"/>
      <ItemData ItemOID="IT.VS.DOMAIN" Value="VS"/>
      <ItemData ItemOID="IT.VS.USUBJID" Value="CDISC002"/>
      <ItemData ItemOID="IT.VS.VSSEQ" Value="8"/>
      <ItemData ItemOID="IT.VS.VSTESTCD" Value="DIABP"/>
      <ItemData ItemOID="IT.VS.VSTEST" Value="Diastolic Blood Pressure"/>
      <ItemData ItemOID="IT.VS.VSPOS" Value="STANDING"/>
      <ItemData ItemOID="IT.VS.VSORRES" Value="65"/>
      <ItemData ItemOID="IT.VS.VSORRESU" Value="mmHg"/>
      <ItemData ItemOID="IT.VS.VSSTRESC" Value="65"/>
      <ItemData ItemOID="IT.VS.VSSTRESN" Value="65"/>
      <ItemData ItemOID="IT.VS.VSSTRESU" Value="mmHg"/>
      <ItemData ItemOID="IT.VS.VSREPNUM" Value="2"/>
      <ItemData ItemOID="IT.VS.VISITNUM" Value="8"/>
      <ItemData ItemOID="IT.VS.VISIT" Value="WEEK 8"/>
      <ItemData ItemOID="IT.VS.EPOCH" Value="TREATMENT"/>
      <ItemData ItemOID="IT.VS.VSDTC" Value="2013-01-08"/>
      <ItemData ItemOID="IT.VS.VSDY" Value="55"/>
    </ItemGroupData>
    <ItemGroupData ItemGroupOID="IG.VS" data:ItemGroupDataSeq="66">
      <ItemData ItemOID="IT.VS.STUDYID" Value="CDISCPILOT01"/>
      <ItemData ItemOID="IT.VS.DOMAIN" Value="VS"/>
      <ItemData ItemOID="IT.VS.USUBJID" Value="CDISC002"/>
      <ItemData ItemOID="IT.VS.VSSEQ" Value="9"/>
      <ItemData ItemOID="IT.VS.VSTESTCD" Value="DIABP"/>
      <ItemData ItemOID="IT.VS.VSTEST" Value="Diastolic Blood Pressure"/>
      <ItemData ItemOID="IT.VS.VSPOS" Value="STANDING"/>
      <ItemData ItemOID="IT.VS.VSORRES" Value="68"/>
      <ItemData ItemOID="IT.VS.VSORRESU" Value="mmHg"/>
      <ItemData ItemOID="IT.VS.VSSTRESC" Value="68"/>
      <ItemData ItemOID="IT.VS.VSSTRESN" Value="68"/>
      <ItemData ItemOID="IT.VS.VSSTRESU" Value="mmHg"/>
      <ItemData ItemOID="IT.VS.VSREPNUM" Value="3"/>
      <ItemData ItemOID="IT.VS.VISITNUM" Value="8"/>
      <ItemData ItemOID="IT.VS.VISIT" Value="WEEK 8"/>
      <ItemData ItemOID="IT.VS.EPOCH" Value="TREATMENT"/>
      <ItemData ItemOID="IT.VS.VSDTC" Value="2013-01-08"/>
      <ItemData ItemOID="IT.VS.VSDY" Value="55"/>
    </ItemGroupData>
    <ItemGroupData ItemGroupOID="IG.VS" data:ItemGroupDataSeq="67">
      <ItemData ItemOID="IT.VS.STUDYID" Value="CDISCPILOT01"/>
      <ItemData ItemOID="IT.VS.DOMAIN" Value="VS"/>
      <ItemData ItemOID="IT.VS.USUBJID" Value="CDISC002"/>
      <ItemData ItemOID="IT.VS.VSSEQ" Value="10"/>
      <ItemData ItemOID="IT.VS.VSTESTCD" Value="HEIGHT"/>
      <ItemData ItemOID="IT.VS.VSTEST" Value="Height"/>
      <ItemData ItemOID="IT.VS.VSORRES" Value="63.0"/>
      <ItemData ItemOID="IT.VS.VSORRESU" Value="in"/>
      <ItemData ItemOID="IT.VS.VSSTRESC" Value="160.02"/>
      <ItemData ItemOID="IT.VS.VSSTRESN" Value="160.02"/>
      <ItemData ItemOID="IT.VS.VSSTRESU" Value="cm"/>
      <ItemData ItemOID="IT.VS.VISITNUM" Value="1"/>
      <ItemData ItemOID="IT.VS.VISIT" Value="SCREENING 1"/>
      <ItemData ItemOID="IT.VS.EPOCH" Value="SCREENING"/>
      <ItemData ItemOID="IT.VS.VSDTC" Value="2012-10-30"/>
      <ItemData ItemOID="IT.VS.VSDY" Value="-16"/>
    </ItemGroupData>
    <ItemGroupData ItemGroupOID="IG.VS" data:ItemGroupDataSeq="68">
      <ItemData ItemOID="IT.VS.STUDYID" Value="CDISCPILOT01"/>
      <ItemData ItemOID="IT.VS.DOMAIN" Value="VS"/>
      <ItemData ItemOID="IT.VS.USUBJID" Value="CDISC002"/>
      <ItemData ItemOID="IT.VS.VSSEQ" Value="11"/>
      <ItemData ItemOID="IT.VS.VSTESTCD" Value="PULSE"/>
      <ItemData ItemOID="IT.VS.VSTEST" Value="Pulse Rate"/>
      <ItemData ItemOID="IT.VS.VSPOS" Value="STANDING"/>
      <ItemData ItemOID="IT.VS.VSORRES" Value="55"/>
      <ItemData ItemOID="IT.VS.VSORRESU" Value="beats/min"/>
      <ItemData ItemOID="IT.VS.VSSTRESC" Value="55"/>
      <ItemData ItemOID="IT.VS.VSSTRESN" Value="55"/>
      <ItemData ItemOID="IT.VS.VSSTRESU" Value="beats/min"/>
      <ItemData ItemOID="IT.VS.VISITNUM" Value="1"/>
      <ItemData ItemOID="IT.VS.VISIT" Value="SCREENING 1"/>
      <ItemData ItemOID="IT.VS.EPOCH" Value="SCREENING"/>
      <ItemData ItemOID="IT.VS.VSDTC" Value="2012-10-30"/>
      <ItemData ItemOID="IT.VS.VSDY" Value="-16"/>
    </ItemGroupData>
    <ItemGroupData ItemGroupOID="IG.VS" data:ItemGroupDataSeq="69">
      <ItemData ItemOID="IT.VS.STUDYID" Value="CDISCPILOT01"/>
      <ItemData ItemOID="IT.VS.DOMAIN" Value="VS"/>
      <ItemData ItemOID="IT.VS.USUBJID" Value="CDISC002"/>
      <ItemData ItemOID="IT.VS.VSSEQ" Value="12"/>
      <ItemData ItemOID="IT.VS.VSTESTCD" Value="PULSE"/>
      <ItemData ItemOID="IT.VS.VSTEST" Value="Pulse Rate"/>
      <ItemData ItemOID="IT.VS.VSPOS" Value="STANDING"/>
      <ItemData ItemOID="IT.VS.VSORRES" Value="66"/>
      <ItemData ItemOID="IT.VS.VSORRESU" Value="beats/min"/>
      <ItemData ItemOID="IT.VS.VSSTRESC" Value="66"/>
      <ItemData ItemOID="IT.VS.VSSTRESN" Value="66"/>
      <ItemData ItemOID="IT.VS.VSSTRESU" Value="beats/min"/>
      <ItemData ItemOID="IT.VS.VISITNUM" Value="2"/>
      <ItemData ItemOID="IT.VS.VISIT" Value="SCREENING 2"/>
      <ItemData ItemOID="IT.VS.EPOCH" Value="SCREENING"/>
      <ItemData ItemOID="IT.VS.VSDTC" Value="2012-11-14"/>
      <ItemData ItemOID="IT.VS.VSDY" Value="-1"/>
    </ItemGroupData>
    <ItemGroupData ItemGroupOID="IG.VS" data:ItemGroupDataSeq="70">
      <ItemData ItemOID="IT.VS.STUDYID" Value="CDISCPILOT01"/>
      <ItemData ItemOID="IT.VS.DOMAIN" Value="VS"/>
      <ItemData ItemOID="IT.VS.USUBJID" Value="CDISC002"/>
      <ItemData ItemOID="IT.VS.VSSEQ" Value="13"/>
      <ItemData ItemOID="IT.VS.VSTESTCD" Value="PULSE"/>
      <ItemData ItemOID="IT.VS.VSTEST" Value="Pulse Rate"/>
      <ItemData ItemOID="IT.VS.VSPOS" Value="STANDING"/>
      <ItemData ItemOID="IT.VS.VSORRES" Value="57"/>
      <ItemData ItemOID="IT.VS.VSORRESU" Value="beats/min"/>
      <ItemData ItemOID="IT.VS.VSSTRESC" Value="57"/>
      <ItemData ItemOID="IT.VS.VSSTRESN" Value="57"/>
      <ItemData ItemOID="IT.VS.VSSTRESU" Value="beats/min"/>
      <ItemData ItemOID="IT.VS.VSLOBXFL" Value="Y"/>
      <ItemData ItemOID="IT.VS.VISITNUM" Value="3"/>
      <ItemData ItemOID="IT.VS.VISIT" Value="BASELINE"/>
      <ItemData ItemOID="IT.VS.EPOCH" Value="SCREENING"/>
      <ItemData ItemOID="IT.VS.VSDTC" Value="2012-11-15"/>
      <ItemData ItemOID="IT.VS.VSDY" Value="1"/>
    </ItemGroupData>
    <ItemGroupData ItemGroupOID="IG.VS" data:ItemGroupDataSeq="71">
      <ItemData ItemOID="IT.VS.STUDYID" Value="CDISCPILOT01"/>
      <ItemData ItemOID="IT.VS.DOMAIN" Value="VS"/>
      <ItemData ItemOID="IT.VS.USUBJID" Value="CDISC002"/>
      <ItemData ItemOID="IT.VS.VSSEQ" Value="14"/>
      <ItemData ItemOID="IT.VS.VSTESTCD" Value="PULSE"/>
      <ItemData ItemOID="IT.VS.VSTEST" Value="Pulse Rate"/>
      <ItemData ItemOID="IT.VS.VSPOS" Value="STANDING"/>
      <ItemData ItemOID="IT.VS.VSORRES" Value="74"/>
      <ItemData ItemOID="IT.VS.VSORRESU" Value="beats/min"/>
      <ItemData ItemOID="IT.VS.VSSTRESC" Value="74"/>
      <ItemData ItemOID="IT.VS.VSSTRESN" Value="74"/>
      <ItemData ItemOID="IT.VS.VSSTRESU" Value="beats/min"/>
      <ItemData ItemOID="IT.VS.VISITNUM" Value="4"/>
      <ItemData ItemOID="IT.VS.VISIT" Value="WEEK 2"/>
      <ItemData ItemOID="IT.VS.EPOCH" Value="TREATMENT"/>
      <ItemData ItemOID="IT.VS.VSDTC" Value="2012-11-28"/>
      <ItemData ItemOID="IT.VS.VSDY" Value="14"/>
    </ItemGroupData>
    <ItemGroupData ItemGroupOID="IG.VS" data:ItemGroupDataSeq="72">
      <ItemData ItemOID="IT.VS.STUDYID" Value="CDISCPILOT01"/>
      <ItemData ItemOID="IT.VS.DOMAIN" Value="VS"/>
      <ItemData ItemOID="IT.VS.USUBJID" Value="CDISC002"/>
      <ItemData ItemOID="IT.VS.VSSEQ" Value="15"/>
      <ItemData ItemOID="IT.VS.VSTESTCD" Value="PULSE"/>
      <ItemData ItemOID="IT.VS.VSTEST" Value="Pulse Rate"/>
      <ItemData ItemOID="IT.VS.VSPOS" Value="STANDING"/>
      <ItemData ItemOID="IT.VS.VSORRES" Value="66"/>
      <ItemData ItemOID="IT.VS.VSORRESU" Value="beats/min"/>
      <ItemData ItemOID="IT.VS.VSSTRESC" Value="66"/>
      <ItemData ItemOID="IT.VS.VSSTRESN" Value="66"/>
      <ItemData ItemOID="IT.VS.VSSTRESU" Value="beats/min"/>
      <ItemData ItemOID="IT.VS.VISITNUM" Value="5"/>
      <ItemData ItemOID="IT.VS.VISIT" Value="WEEK 4"/>
      <ItemData ItemOID="IT.VS.EPOCH" Value="TREATMENT"/>
      <ItemData ItemOID="IT.VS.VSDTC" Value="2012-12-11"/>
      <ItemData ItemOID="IT.VS.VSDY" Value="27"/>
    </ItemGroupData>
    <ItemGroupData ItemGroupOID="IG.VS" data:ItemGroupDataSeq="73">
      <ItemData ItemOID="IT.VS.STUDYID" Value="CDISCPILOT01"/>
      <ItemData ItemOID="IT.VS.DOMAIN" Value="VS"/>
      <ItemData ItemOID="IT.VS.USUBJID" Value="CDISC002"/>
      <ItemData ItemOID="IT.VS.VSSEQ" Value="16"/>
      <ItemData ItemOID="IT.VS.VSTESTCD" Value="PULSE"/>
      <ItemData ItemOID="IT.VS.VSTEST" Value="Pulse Rate"/>
      <ItemData ItemOID="IT.VS.VSPOS" Value="STANDING"/>
      <ItemData ItemOID="IT.VS.VSORRES" Value="63"/>
      <ItemData ItemOID="IT.VS.VSORRESU" Value="beats/min"/>
      <ItemData ItemOID="IT.VS.VSSTRESC" Value="63"/>
      <ItemData ItemOID="IT.VS.VSSTRESN" Value="63"/>
      <ItemData ItemOID="IT.VS.VSSTRESU" Value="beats/min"/>
      <ItemData ItemOID="IT.VS.VISITNUM" Value="7"/>
      <ItemData ItemOID="IT.VS.VISIT" Value="WEEK 6"/>
      <ItemData ItemOID="IT.VS.EPOCH" Value="TREATMENT"/>
      <ItemData ItemOID="IT.VS.VSDTC" Value="2012-12-25"/>
      <ItemData ItemOID="IT.VS.VSDY" Value="41"/>
    </ItemGroupData>
    <ItemGroupData ItemGroupOID="IG.VS" data:ItemGroupDataSeq="74">
      <ItemData ItemOID="IT.VS.STUDYID" Value="CDISCPILOT01"/>
      <ItemData ItemOID="IT.VS.DOMAIN" Value="VS"/>
      <ItemData ItemOID="IT.VS.USUBJID" Value="CDISC002"/>
      <ItemData ItemOID="IT.VS.VSSEQ" Value="17"/>
      <ItemData ItemOID="IT.VS.VSTESTCD" Value="PULSE"/>
      <ItemData ItemOID="IT.VS.VSTEST" Value="Pulse Rate"/>
      <ItemData ItemOID="IT.VS.VSPOS" Value="SUPINE"/>
      <ItemData ItemOID="IT.VS.VSORRES" Value="65"/>
      <ItemData ItemOID="IT.VS.VSORRESU" Value="beats/min"/>
      <ItemData ItemOID="IT.VS.VSSTRESC" Value="65"/>
      <ItemData ItemOID="IT.VS.VSSTRESN" Value="65"/>
      <ItemData ItemOID="IT.VS.VSSTRESU" Value="beats/min"/>
      <ItemData ItemOID="IT.VS.VSREPNUM" Value="1"/>
      <ItemData ItemOID="IT.VS.VISITNUM" Value="8"/>
      <ItemData ItemOID="IT.VS.VISIT" Value="WEEK 8"/>
      <ItemData ItemOID="IT.VS.EPOCH" Value="TREATMENT"/>
      <ItemData ItemOID="IT.VS.VSDTC" Value="2013-01-08"/>
      <ItemData ItemOID="IT.VS.VSDY" Value="55"/>
    </ItemGroupData>
    <ItemGroupData ItemGroupOID="IG.VS" data:ItemGroupDataSeq="75">
      <ItemData ItemOID="IT.VS.STUDYID" Value="CDISCPILOT01"/>
      <ItemData ItemOID="IT.VS.DOMAIN" Value="VS"/>
      <ItemData ItemOID="IT.VS.USUBJID" Value="CDISC002"/>
      <ItemData ItemOID="IT.VS.VSSEQ" Value="18"/>
      <ItemData ItemOID="IT.VS.VSTESTCD" Value="PULSE"/>
      <ItemData ItemOID="IT.VS.VSTEST" Value="Pulse Rate"/>
      <ItemData ItemOID="IT.VS.VSPOS" Value="STANDING"/>
      <ItemData ItemOID="IT.VS.VSORRES" Value="75"/>
      <ItemData ItemOID="IT.VS.VSORRESU" Value="beats/min"/>
      <ItemData ItemOID="IT.VS.VSSTRESC" Value="75"/>
      <ItemData ItemOID="IT.VS.VSSTRESN" Value="75"/>
      <ItemData ItemOID="IT.VS.VSSTRESU" Value="beats/min"/>
      <ItemData ItemOID="IT.VS.VSREPNUM" Value="2"/>
      <ItemData ItemOID="IT.VS.VISITNUM" Value="8"/>
      <ItemData ItemOID="IT.VS.VISIT" Value="WEEK 8"/>
      <ItemData ItemOID="IT.VS.EPOCH" Value="TREATMENT"/>
      <ItemData ItemOID="IT.VS.VSDTC" Value="2013-01-08"/>
      <ItemData ItemOID="IT.VS.VSDY" Value="55"/>
    </ItemGroupData>
    <ItemGroupData ItemGroupOID="IG.VS" data:ItemGroupDataSeq="76">
      <ItemData ItemOID="IT.VS.STUDYID" Value="CDISCPILOT01"/>
      <ItemData ItemOID="IT.VS.DOMAIN" Value="VS"/>
      <ItemData ItemOID="IT.VS.USUBJID" Value="CDISC002"/>
      <ItemData ItemOID="IT.VS.VSSEQ" Value="19"/>
      <ItemData ItemOID="IT.VS.VSTESTCD" Value="PULSE"/>
      <ItemData ItemOID="IT.VS.VSTEST" Value="Pulse Rate"/>
      <ItemData ItemOID="IT.VS.VSPOS" Value="STANDING"/>
      <ItemData ItemOID="IT.VS.VSORRES" Value="74"/>
      <ItemData ItemOID="IT.VS.VSORRESU" Value="beats/min"/>
      <ItemData ItemOID="IT.VS.VSSTRESC" Value="74"/>
      <ItemData ItemOID="IT.VS.VSSTRESN" Value="74"/>
      <ItemData ItemOID="IT.VS.VSSTRESU" Value="beats/min"/>
      <ItemData ItemOID="IT.VS.VSREPNUM" Value="3"/>
      <ItemData ItemOID="IT.VS.VISITNUM" Value="8"/>
      <ItemData ItemOID="IT.VS.VISIT" Value="WEEK 8"/>
      <ItemData ItemOID="IT.VS.EPOCH" Value="TREATMENT"/>
      <ItemData ItemOID="IT.VS.VSDTC" Value="2013-01-08"/>
      <ItemData ItemOID="IT.VS.VSDY" Value="55"/>
    </ItemGroupData>
    <ItemGroupData ItemGroupOID="IG.VS" data:ItemGroupDataSeq="77">
      <ItemData ItemOID="IT.VS.STUDYID" Value="CDISCPILOT01"/>
      <ItemData ItemOID="IT.VS.DOMAIN" Value="VS"/>
      <ItemData ItemOID="IT.VS.USUBJID" Value="CDISC002"/>
      <ItemData ItemOID="IT.VS.VSSEQ" Value="20"/>
      <ItemData ItemOID="IT.VS.VSTESTCD" Value="SYSBP"/>
      <ItemData ItemOID="IT.VS.VSTEST" Value="Systolic Blood Pressure"/>
      <ItemData ItemOID="IT.VS.VSPOS" Value="STANDING"/>
      <ItemData ItemOID="IT.VS.VSORRES" Value="144"/>
      <ItemData ItemOID="IT.VS.VSORRESU" Value="mmHg"/>
      <ItemData ItemOID="IT.VS.VSSTRESC" Value="144"/>
      <ItemData ItemOID="IT.VS.VSSTRESN" Value="144"/>
      <ItemData ItemOID="IT.VS.VSSTRESU" Value="mmHg"/>
      <ItemData ItemOID="IT.VS.VISITNUM" Value="1"/>
      <ItemData ItemOID="IT.VS.VISIT" Value="SCREENING 1"/>
      <ItemData ItemOID="IT.VS.EPOCH" Value="SCREENING"/>
      <ItemData ItemOID="IT.VS.VSDTC" Value="2012-10-30"/>
      <ItemData ItemOID="IT.VS.VSDY" Value="-16"/>
    </ItemGroupData>
    <ItemGroupData ItemGroupOID="IG.VS" data:ItemGroupDataSeq="78">
      <ItemData ItemOID="IT.VS.STUDYID" Value="CDISCPILOT01"/>
      <ItemData ItemOID="IT.VS.DOMAIN" Value="VS"/>
      <ItemData ItemOID="IT.VS.USUBJID" Value="CDISC002"/>
      <ItemData ItemOID="IT.VS.VSSEQ" Value="21"/>
      <ItemData ItemOID="IT.VS.VSTESTCD" Value="SYSBP"/>
      <ItemData ItemOID="IT.VS.VSTEST" Value="Systolic Blood Pressure"/>
      <ItemData ItemOID="IT.VS.VSPOS" Value="STANDING"/>
      <ItemData ItemOID="IT.VS.VSORRES" Value="137"/>
      <ItemData ItemOID="IT.VS.VSORRESU" Value="mmHg"/>
      <ItemData ItemOID="IT.VS.VSSTRESC" Value="137"/>
      <ItemData ItemOID="IT.VS.VSSTRESN" Value="137"/>
      <ItemData ItemOID="IT.VS.VSSTRESU" Value="mmHg"/>
      <ItemData ItemOID="IT.VS.VISITNUM" Value="2"/>
      <ItemData ItemOID="IT.VS.VISIT" Value="SCREENING 2"/>
      <ItemData ItemOID="IT.VS.EPOCH" Value="SCREENING"/>
      <ItemData ItemOID="IT.VS.VSDTC" Value="2012-11-14"/>
      <ItemData ItemOID="IT.VS.VSDY" Value="-1"/>
    </ItemGroupData>
    <ItemGroupData ItemGroupOID="IG.VS" data:ItemGroupDataSeq="79">
      <ItemData ItemOID="IT.VS.STUDYID" Value="CDISCPILOT01"/>
      <ItemData ItemOID="IT.VS.DOMAIN" Value="VS"/>
      <ItemData ItemOID="IT.VS.USUBJID" Value="CDISC002"/>
      <ItemData ItemOID="IT.VS.VSSEQ" Value="22"/>
      <ItemData ItemOID="IT.VS.VSTESTCD" Value="SYSBP"/>
      <ItemData ItemOID="IT.VS.VSTEST" Value="Systolic Blood Pressure"/>
      <ItemData ItemOID="IT.VS.VSPOS" Value="STANDING"/>
      <ItemData ItemOID="IT.VS.VSORRES" Value="135"/>
      <ItemData ItemOID="IT.VS.VSORRESU" Value="mmHg"/>
      <ItemData ItemOID="IT.VS.VSSTRESC" Value="135"/>
      <ItemData ItemOID="IT.VS.VSSTRESN" Value="135"/>
      <ItemData ItemOID="IT.VS.VSSTRESU" Value="mmHg"/>
      <ItemData ItemOID="IT.VS.VSLOBXFL" Value="Y"/>
      <ItemData ItemOID="IT.VS.VISITNUM" Value="3"/>
      <ItemData ItemOID="IT.VS.VISIT" Value="BASELINE"/>
      <ItemData ItemOID="IT.VS.EPOCH" Value="SCREENING"/>
      <ItemData ItemOID="IT.VS.VSDTC" Value="2012-11-15"/>
      <ItemData ItemOID="IT.VS.VSDY" Value="1"/>
    </ItemGroupData>
    <ItemGroupData ItemGroupOID="IG.VS" data:ItemGroupDataSeq="80">
      <ItemData ItemOID="IT.VS.STUDYID" Value="CDISCPILOT01"/>
      <ItemData ItemOID="IT.VS.DOMAIN" Value="VS"/>
      <ItemData ItemOID="IT.VS.USUBJID" Value="CDISC002"/>
      <ItemData ItemOID="IT.VS.VSSEQ" Value="23"/>
      <ItemData ItemOID="IT.VS.VSTESTCD" Value="SYSBP"/>
      <ItemData ItemOID="IT.VS.VSTEST" Value="Systolic Blood Pressure"/>
      <ItemData ItemOID="IT.VS.VSPOS" Value="STANDING"/>
      <ItemData ItemOID="IT.VS.VSORRES" Value="113"/>
      <ItemData ItemOID="IT.VS.VSORRESU" Value="mmHg"/>
      <ItemData ItemOID="IT.VS.VSSTRESC" Value="113"/>
      <ItemData ItemOID="IT.VS.VSSTRESN" Value="113"/>
      <ItemData ItemOID="IT.VS.VSSTRESU" Value="mmHg"/>
      <ItemData ItemOID="IT.VS.VISITNUM" Value="4"/>
      <ItemData ItemOID="IT.VS.VISIT" Value="WEEK 2"/>
      <ItemData ItemOID="IT.VS.EPOCH" Value="TREATMENT"/>
      <ItemData ItemOID="IT.VS.VSDTC" Value="2012-11-28"/>
      <ItemData ItemOID="IT.VS.VSDY" Value="14"/>
    </ItemGroupData>
    <ItemGroupData ItemGroupOID="IG.VS" data:ItemGroupDataSeq="81">
      <ItemData ItemOID="IT.VS.STUDYID" Value="CDISCPILOT01"/>
      <ItemData ItemOID="IT.VS.DOMAIN" Value="VS"/>
      <ItemData ItemOID="IT.VS.USUBJID" Value="CDISC002"/>
      <ItemData ItemOID="IT.VS.VSSEQ" Value="24"/>
      <ItemData ItemOID="IT.VS.VSTESTCD" Value="SYSBP"/>
      <ItemData ItemOID="IT.VS.VSTEST" Value="Systolic Blood Pressure"/>
      <ItemData ItemOID="IT.VS.VSPOS" Value="STANDING"/>
      <ItemData ItemOID="IT.VS.VSORRES" Value="115"/>
      <ItemData ItemOID="IT.VS.VSORRESU" Value="mmHg"/>
      <ItemData ItemOID="IT.VS.VSSTRESC" Value="115"/>
      <ItemData ItemOID="IT.VS.VSSTRESN" Value="115"/>
      <ItemData ItemOID="IT.VS.VSSTRESU" Value="mmHg"/>
      <ItemData ItemOID="IT.VS.VISITNUM" Value="5"/>
      <ItemData ItemOID="IT.VS.VISIT" Value="WEEK 4"/>
      <ItemData ItemOID="IT.VS.EPOCH" Value="TREATMENT"/>
      <ItemData ItemOID="IT.VS.VSDTC" Value="2012-12-11"/>
      <ItemData ItemOID="IT.VS.VSDY" Value="27"/>
    </ItemGroupData>
    <ItemGroupData ItemGroupOID="IG.VS" data:ItemGroupDataSeq="82">
      <ItemData ItemOID="IT.VS.STUDYID" Value="CDISCPILOT01"/>
      <ItemData ItemOID="IT.VS.DOMAIN" Value="VS"/>
      <ItemData ItemOID="IT.VS.USUBJID" Value="CDISC002"/>
      <ItemData ItemOID="IT.VS.VSSEQ" Value="25"/>
      <ItemData ItemOID="IT.VS.VSTESTCD" Value="SYSBP"/>
      <ItemData ItemOID="IT.VS.VSTEST" Value="Systolic Blood Pressure"/>
      <ItemData ItemOID="IT.VS.VSPOS" Value="STANDING"/>
      <ItemData ItemOID="IT.VS.VSORRES" Value="123"/>
      <ItemData ItemOID="IT.VS.VSORRESU" Value="mmHg"/>
      <ItemData ItemOID="IT.VS.VSSTRESC" Value="123"/>
      <ItemData ItemOID="IT.VS.VSSTRESN" Value="123"/>
      <ItemData ItemOID="IT.VS.VSSTRESU" Value="mmHg"/>
      <ItemData ItemOID="IT.VS.VISITNUM" Value="7"/>
      <ItemData ItemOID="IT.VS.VISIT" Value="WEEK 6"/>
      <ItemData ItemOID="IT.VS.EPOCH" Value="TREATMENT"/>
      <ItemData ItemOID="IT.VS.VSDTC" Value="2012-12-25"/>
      <ItemData ItemOID="IT.VS.VSDY" Value="41"/>
    </ItemGroupData>
    <ItemGroupData ItemGroupOID="IG.VS" data:ItemGroupDataSeq="83">
      <ItemData ItemOID="IT.VS.STUDYID" Value="CDISCPILOT01"/>
      <ItemData ItemOID="IT.VS.DOMAIN" Value="VS"/>
      <ItemData ItemOID="IT.VS.USUBJID" Value="CDISC002"/>
      <ItemData ItemOID="IT.VS.VSSEQ" Value="26"/>
      <ItemData ItemOID="IT.VS.VSTESTCD" Value="SYSBP"/>
      <ItemData ItemOID="IT.VS.VSTEST" Value="Systolic Blood Pressure"/>
      <ItemData ItemOID="IT.VS.VSPOS" Value="SUPINE"/>
      <ItemData ItemOID="IT.VS.VSORRES" Value="156"/>
      <ItemData ItemOID="IT.VS.VSORRESU" Value="mmHg"/>
      <ItemData ItemOID="IT.VS.VSSTRESC" Value="156"/>
      <ItemData ItemOID="IT.VS.VSSTRESN" Value="156"/>
      <ItemData ItemOID="IT.VS.VSSTRESU" Value="mmHg"/>
      <ItemData ItemOID="IT.VS.VSREPNUM" Value="1"/>
      <ItemData ItemOID="IT.VS.VISITNUM" Value="8"/>
      <ItemData ItemOID="IT.VS.VISIT" Value="WEEK 8"/>
      <ItemData ItemOID="IT.VS.EPOCH" Value="TREATMENT"/>
      <ItemData ItemOID="IT.VS.VSDTC" Value="2013-01-08"/>
      <ItemData ItemOID="IT.VS.VSDY" Value="55"/>
    </ItemGroupData>
    <ItemGroupData ItemGroupOID="IG.VS" data:ItemGroupDataSeq="84">
      <ItemData ItemOID="IT.VS.STUDYID" Value="CDISCPILOT01"/>
      <ItemData ItemOID="IT.VS.DOMAIN" Value="VS"/>
      <ItemData ItemOID="IT.VS.USUBJID" Value="CDISC002"/>
      <ItemData ItemOID="IT.VS.VSSEQ" Value="27"/>
      <ItemData ItemOID="IT.VS.VSTESTCD" Value="SYSBP"/>
      <ItemData ItemOID="IT.VS.VSTEST" Value="Systolic Blood Pressure"/>
      <ItemData ItemOID="IT.VS.VSPOS" Value="STANDING"/>
      <ItemData ItemOID="IT.VS.VSORRES" Value="114"/>
      <ItemData ItemOID="IT.VS.VSORRESU" Value="mmHg"/>
      <ItemData ItemOID="IT.VS.VSSTRESC" Value="114"/>
      <ItemData ItemOID="IT.VS.VSSTRESN" Value="114"/>
      <ItemData ItemOID="IT.VS.VSSTRESU" Value="mmHg"/>
      <ItemData ItemOID="IT.VS.VSREPNUM" Value="2"/>
      <ItemData ItemOID="IT.VS.VISITNUM" Value="8"/>
      <ItemData ItemOID="IT.VS.VISIT" Value="WEEK 8"/>
      <ItemData ItemOID="IT.VS.EPOCH" Value="TREATMENT"/>
      <ItemData ItemOID="IT.VS.VSDTC" Value="2013-01-08"/>
      <ItemData ItemOID="IT.VS.VSDY" Value="55"/>
    </ItemGroupData>
    <ItemGroupData ItemGroupOID="IG.VS" data:ItemGroupDataSeq="85">
      <ItemData ItemOID="IT.VS.STUDYID" Value="CDISCPILOT01"/>
      <ItemData ItemOID="IT.VS.DOMAIN" Value="VS"/>
      <ItemData ItemOID="IT.VS.USUBJID" Value="CDISC002"/>
      <ItemData ItemOID="IT.VS.VSSEQ" Value="28"/>
      <ItemData ItemOID="IT.VS.VSTESTCD" Value="SYSBP"/>
      <ItemData ItemOID="IT.VS.VSTEST" Value="Systolic Blood Pressure"/>
      <ItemData ItemOID="IT.VS.VSPOS" Value="STANDING"/>
      <ItemData ItemOID="IT.VS.VSORRES" Value="127"/>
      <ItemData ItemOID="IT.VS.VSORRESU" Value="mmHg"/>
      <ItemData ItemOID="IT.VS.VSSTRESC" Value="127"/>
      <ItemData ItemOID="IT.VS.VSSTRESN" Value="127"/>
      <ItemData ItemOID="IT.VS.VSSTRESU" Value="mmHg"/>
      <ItemData ItemOID="IT.VS.VSREPNUM" Value="3"/>
      <ItemData ItemOID="IT.VS.VISITNUM" Value="8"/>
      <ItemData ItemOID="IT.VS.VISIT" Value="WEEK 8"/>
      <ItemData ItemOID="IT.VS.EPOCH" Value="TREATMENT"/>
      <ItemData ItemOID="IT.VS.VSDTC" Value="2013-01-08"/>
      <ItemData ItemOID="IT.VS.VSDY" Value="55"/>
    </ItemGroupData>
    <ItemGroupData ItemGroupOID="IG.VS" data:ItemGroupDataSeq="86">
      <ItemData ItemOID="IT.VS.STUDYID" Value="CDISCPILOT01"/>
      <ItemData ItemOID="IT.VS.DOMAIN" Value="VS"/>
      <ItemData ItemOID="IT.VS.USUBJID" Value="CDISC002"/>
      <ItemData ItemOID="IT.VS.VSSEQ" Value="29"/>
      <ItemData ItemOID="IT.VS.VSTESTCD" Value="TEMP"/>
      <ItemData ItemOID="IT.VS.VSTEST" Value="Temperature"/>
      <ItemData ItemOID="IT.VS.VSORRES" Value="99.6"/>
      <ItemData ItemOID="IT.VS.VSORRESU" Value="F"/>
      <ItemData ItemOID="IT.VS.VSSTRESC" Value="37.56"/>
      <ItemData ItemOID="IT.VS.VSSTRESN" Value="37.56"/>
      <ItemData ItemOID="IT.VS.VSSTRESU" Value="C"/>
      <ItemData ItemOID="IT.VS.VSLOC" Value="ORAL CAVITY"/>
      <ItemData ItemOID="IT.VS.VISITNUM" Value="1"/>
      <ItemData ItemOID="IT.VS.VISIT" Value="SCREENING 1"/>
      <ItemData ItemOID="IT.VS.EPOCH" Value="SCREENING"/>
      <ItemData ItemOID="IT.VS.VSDTC" Value="2012-10-30"/>
      <ItemData ItemOID="IT.VS.VSDY" Value="-16"/>
    </ItemGroupData>
    <ItemGroupData ItemGroupOID="IG.VS" data:ItemGroupDataSeq="87">
      <ItemData ItemOID="IT.VS.STUDYID" Value="CDISCPILOT01"/>
      <ItemData ItemOID="IT.VS.DOMAIN" Value="VS"/>
      <ItemData ItemOID="IT.VS.USUBJID" Value="CDISC002"/>
      <ItemData ItemOID="IT.VS.VSSEQ" Value="30"/>
      <ItemData ItemOID="IT.VS.VSTESTCD" Value="TEMP"/>
      <ItemData ItemOID="IT.VS.VSTEST" Value="Temperature"/>
      <ItemData ItemOID="IT.VS.VSORRES" Value="98.7"/>
      <ItemData ItemOID="IT.VS.VSORRESU" Value="F"/>
      <ItemData ItemOID="IT.VS.VSSTRESC" Value="37.06"/>
      <ItemData ItemOID="IT.VS.VSSTRESN" Value="37.06"/>
      <ItemData ItemOID="IT.VS.VSSTRESU" Value="C"/>
      <ItemData ItemOID="IT.VS.VSLOC" Value="ORAL CAVITY"/>
      <ItemData ItemOID="IT.VS.VISITNUM" Value="2"/>
      <ItemData ItemOID="IT.VS.VISIT" Value="SCREENING 2"/>
      <ItemData ItemOID="IT.VS.EPOCH" Value="SCREENING"/>
      <ItemData ItemOID="IT.VS.VSDTC" Value="2012-11-14"/>
      <ItemData ItemOID="IT.VS.VSDY" Value="-1"/>
    </ItemGroupData>
    <ItemGroupData ItemGroupOID="IG.VS" data:ItemGroupDataSeq="88">
      <ItemData ItemOID="IT.VS.STUDYID" Value="CDISCPILOT01"/>
      <ItemData ItemOID="IT.VS.DOMAIN" Value="VS"/>
      <ItemData ItemOID="IT.VS.USUBJID" Value="CDISC002"/>
      <ItemData ItemOID="IT.VS.VSSEQ" Value="31"/>
      <ItemData ItemOID="IT.VS.VSTESTCD" Value="TEMP"/>
      <ItemData ItemOID="IT.VS.VSTEST" Value="Temperature"/>
      <ItemData ItemOID="IT.VS.VSORRES" Value="97.8"/>
      <ItemData ItemOID="IT.VS.VSORRESU" Value="F"/>
      <ItemData ItemOID="IT.VS.VSSTRESC" Value="36.56"/>
      <ItemData ItemOID="IT.VS.VSSTRESN" Value="36.56"/>
      <ItemData ItemOID="IT.VS.VSSTRESU" Value="C"/>
      <ItemData ItemOID="IT.VS.VSLOC" Value="ORAL CAVITY"/>
      <ItemData ItemOID="IT.VS.VSLOBXFL" Value="Y"/>
      <ItemData ItemOID="IT.VS.VISITNUM" Value="3"/>
      <ItemData ItemOID="IT.VS.VISIT" Value="BASELINE"/>
      <ItemData ItemOID="IT.VS.EPOCH" Value="SCREENING"/>
      <ItemData ItemOID="IT.VS.VSDTC" Value="2012-11-15"/>
      <ItemData ItemOID="IT.VS.VSDY" Value="1"/>
    </ItemGroupData>
    <ItemGroupData ItemGroupOID="IG.VS" data:ItemGroupDataSeq="89">
      <ItemData ItemOID="IT.VS.STUDYID" Value="CDISCPILOT01"/>
      <ItemData ItemOID="IT.VS.DOMAIN" Value="VS"/>
      <ItemData ItemOID="IT.VS.USUBJID" Value="CDISC002"/>
      <ItemData ItemOID="IT.VS.VSSEQ" Value="32"/>
      <ItemData ItemOID="IT.VS.VSTESTCD" Value="TEMP"/>
      <ItemData ItemOID="IT.VS.VSTEST" Value="Temperature"/>
      <ItemData ItemOID="IT.VS.VSORRES" Value="97.0"/>
      <ItemData ItemOID="IT.VS.VSORRESU" Value="F"/>
      <ItemData ItemOID="IT.VS.VSSTRESC" Value="36.11"/>
      <ItemData ItemOID="IT.VS.VSSTRESN" Value="36.11"/>
      <ItemData ItemOID="IT.VS.VSSTRESU" Value="C"/>
      <ItemData ItemOID="IT.VS.VSLOC" Value="ORAL CAVITY"/>
      <ItemData ItemOID="IT.VS.VISITNUM" Value="4"/>
      <ItemData ItemOID="IT.VS.VISIT" Value="WEEK 2"/>
      <ItemData ItemOID="IT.VS.EPOCH" Value="TREATMENT"/>
      <ItemData ItemOID="IT.VS.VSDTC" Value="2012-11-28"/>
      <ItemData ItemOID="IT.VS.VSDY" Value="14"/>
    </ItemGroupData>
    <ItemGroupData ItemGroupOID="IG.VS" data:ItemGroupDataSeq="90">
      <ItemData ItemOID="IT.VS.STUDYID" Value="CDISCPILOT01"/>
      <ItemData ItemOID="IT.VS.DOMAIN" Value="VS"/>
      <ItemData ItemOID="IT.VS.USUBJID" Value="CDISC002"/>
      <ItemData ItemOID="IT.VS.VSSEQ" Value="33"/>
      <ItemData ItemOID="IT.VS.VSTESTCD" Value="TEMP"/>
      <ItemData ItemOID="IT.VS.VSTEST" Value="Temperature"/>
      <ItemData ItemOID="IT.VS.VSORRES" Value="97.8"/>
      <ItemData ItemOID="IT.VS.VSORRESU" Value="F"/>
      <ItemData ItemOID="IT.VS.VSSTRESC" Value="36.56"/>
      <ItemData ItemOID="IT.VS.VSSTRESN" Value="36.56"/>
      <ItemData ItemOID="IT.VS.VSSTRESU" Value="C"/>
      <ItemData ItemOID="IT.VS.VSLOC" Value="ORAL CAVITY"/>
      <ItemData ItemOID="IT.VS.VISITNUM" Value="5"/>
      <ItemData ItemOID="IT.VS.VISIT" Value="WEEK 4"/>
      <ItemData ItemOID="IT.VS.EPOCH" Value="TREATMENT"/>
      <ItemData ItemOID="IT.VS.VSDTC" Value="2012-12-11"/>
      <ItemData ItemOID="IT.VS.VSDY" Value="27"/>
    </ItemGroupData>
    <ItemGroupData ItemGroupOID="IG.VS" data:ItemGroupDataSeq="91">
      <ItemData ItemOID="IT.VS.STUDYID" Value="CDISCPILOT01"/>
      <ItemData ItemOID="IT.VS.DOMAIN" Value="VS"/>
      <ItemData ItemOID="IT.VS.USUBJID" Value="CDISC002"/>
      <ItemData ItemOID="IT.VS.VSSEQ" Value="34"/>
      <ItemData ItemOID="IT.VS.VSTESTCD" Value="TEMP"/>
      <ItemData ItemOID="IT.VS.VSTEST" Value="Temperature"/>
      <ItemData ItemOID="IT.VS.VSORRES" Value="96.2"/>
      <ItemData ItemOID="IT.VS.VSORRESU" Value="F"/>
      <ItemData ItemOID="IT.VS.VSSTRESC" Value="35.67"/>
      <ItemData ItemOID="IT.VS.VSSTRESN" Value="35.67"/>
      <ItemData ItemOID="IT.VS.VSSTRESU" Value="C"/>
      <ItemData ItemOID="IT.VS.VSLOC" Value="ORAL CAVITY"/>
      <ItemData ItemOID="IT.VS.VISITNUM" Value="7"/>
      <ItemData ItemOID="IT.VS.VISIT" Value="WEEK 6"/>
      <ItemData ItemOID="IT.VS.EPOCH" Value="TREATMENT"/>
      <ItemData ItemOID="IT.VS.VSDTC" Value="2012-12-25"/>
      <ItemData ItemOID="IT.VS.VSDY" Value="41"/>
    </ItemGroupData>
    <ItemGroupData ItemGroupOID="IG.VS" data:ItemGroupDataSeq="92">
      <ItemData ItemOID="IT.VS.STUDYID" Value="CDISCPILOT01"/>
      <ItemData ItemOID="IT.VS.DOMAIN" Value="VS"/>
      <ItemData ItemOID="IT.VS.USUBJID" Value="CDISC002"/>
      <ItemData ItemOID="IT.VS.VSSEQ" Value="35"/>
      <ItemData ItemOID="IT.VS.VSTESTCD" Value="TEMP"/>
      <ItemData ItemOID="IT.VS.VSTEST" Value="Temperature"/>
      <ItemData ItemOID="IT.VS.VSORRES" Value="97.2"/>
      <ItemData ItemOID="IT.VS.VSORRESU" Value="F"/>
      <ItemData ItemOID="IT.VS.VSSTRESC" Value="36.22"/>
      <ItemData ItemOID="IT.VS.VSSTRESN" Value="36.22"/>
      <ItemData ItemOID="IT.VS.VSSTRESU" Value="C"/>
      <ItemData ItemOID="IT.VS.VSLOC" Value="ORAL CAVITY"/>
      <ItemData ItemOID="IT.VS.VISITNUM" Value="8"/>
      <ItemData ItemOID="IT.VS.VISIT" Value="WEEK 8"/>
      <ItemData ItemOID="IT.VS.EPOCH" Value="TREATMENT"/>
      <ItemData ItemOID="IT.VS.VSDTC" Value="2013-01-08"/>
      <ItemData ItemOID="IT.VS.VSDY" Value="55"/>
    </ItemGroupData>
    <ItemGroupData ItemGroupOID="IG.VS" data:ItemGroupDataSeq="93">
      <ItemData ItemOID="IT.VS.STUDYID" Value="CDISCPILOT01"/>
      <ItemData ItemOID="IT.VS.DOMAIN" Value="VS"/>
      <ItemData ItemOID="IT.VS.USUBJID" Value="CDISC002"/>
      <ItemData ItemOID="IT.VS.VSSEQ" Value="36"/>
      <ItemData ItemOID="IT.VS.VSTESTCD" Value="WEIGHT"/>
      <ItemData ItemOID="IT.VS.VSTEST" Value="Weight"/>
      <ItemData ItemOID="IT.VS.VSORRES" Value="101.0"/>
      <ItemData ItemOID="IT.VS.VSORRESU" Value="LB"/>
      <ItemData ItemOID="IT.VS.VSSTRESC" Value="45.81"/>
      <ItemData ItemOID="IT.VS.VSSTRESN" Value="45.81"/>
      <ItemData ItemOID="IT.VS.VSSTRESU" Value="kg"/>
      <ItemData ItemOID="IT.VS.VISITNUM" Value="1"/>
      <ItemData ItemOID="IT.VS.VISIT" Value="SCREENING 1"/>
      <ItemData ItemOID="IT.VS.EPOCH" Value="SCREENING"/>
      <ItemData ItemOID="IT.VS.VSDTC" Value="2012-10-30"/>
      <ItemData ItemOID="IT.VS.VSDY" Value="-16"/>
    </ItemGroupData>
    <ItemGroupData ItemGroupOID="IG.VS" data:ItemGroupDataSeq="94">
      <ItemData ItemOID="IT.VS.STUDYID" Value="CDISCPILOT01"/>
      <ItemData ItemOID="IT.VS.DOMAIN" Value="VS"/>
      <ItemData ItemOID="IT.VS.USUBJID" Value="CDISC002"/>
      <ItemData ItemOID="IT.VS.VSSEQ" Value="37"/>
      <ItemData ItemOID="IT.VS.VSTESTCD" Value="WEIGHT"/>
      <ItemData ItemOID="IT.VS.VSTEST" Value="Weight"/>
      <ItemData ItemOID="IT.VS.VSORRES" Value="100.0"/>
      <ItemData ItemOID="IT.VS.VSORRESU" Value="LB"/>
      <ItemData ItemOID="IT.VS.VSSTRESC" Value="45.36"/>
      <ItemData ItemOID="IT.VS.VSSTRESN" Value="45.36"/>
      <ItemData ItemOID="IT.VS.VSSTRESU" Value="kg"/>
      <ItemData ItemOID="IT.VS.VSLOBXFL" Value="Y"/>
      <ItemData ItemOID="IT.VS.VISITNUM" Value="3"/>
      <ItemData ItemOID="IT.VS.VISIT" Value="BASELINE"/>
      <ItemData ItemOID="IT.VS.EPOCH" Value="SCREENING"/>
      <ItemData ItemOID="IT.VS.VSDTC" Value="2012-11-15"/>
      <ItemData ItemOID="IT.VS.VSDY" Value="1"/>
    </ItemGroupData>
    <ItemGroupData ItemGroupOID="IG.VS" data:ItemGroupDataSeq="95">
      <ItemData ItemOID="IT.VS.STUDYID" Value="CDISCPILOT01"/>
      <ItemData ItemOID="IT.VS.DOMAIN" Value="VS"/>
      <ItemData ItemOID="IT.VS.USUBJID" Value="CDISC002"/>
      <ItemData ItemOID="IT.VS.VSSEQ" Value="38"/>
      <ItemData ItemOID="IT.VS.VSTESTCD" Value="WEIGHT"/>
      <ItemData ItemOID="IT.VS.VSTEST" Value="Weight"/>
      <ItemData ItemOID="IT.VS.VSORRES" Value="100.0"/>
      <ItemData ItemOID="IT.VS.VSORRESU" Value="LB"/>
      <ItemData ItemOID="IT.VS.VSSTRESC" Value="45.36"/>
      <ItemData ItemOID="IT.VS.VSSTRESN" Value="45.36"/>
      <ItemData ItemOID="IT.VS.VSSTRESU" Value="kg"/>
      <ItemData ItemOID="IT.VS.VISITNUM" Value="4"/>
      <ItemData ItemOID="IT.VS.VISIT" Value="WEEK 2"/>
      <ItemData ItemOID="IT.VS.EPOCH" Value="TREATMENT"/>
      <ItemData ItemOID="IT.VS.VSDTC" Value="2012-11-28"/>
      <ItemData ItemOID="IT.VS.VSDY" Value="14"/>
    </ItemGroupData>
    <ItemGroupData ItemGroupOID="IG.VS" data:ItemGroupDataSeq="96">
      <ItemData ItemOID="IT.VS.STUDYID" Value="CDISCPILOT01"/>
      <ItemData ItemOID="IT.VS.DOMAIN" Value="VS"/>
      <ItemData ItemOID="IT.VS.USUBJID" Value="CDISC002"/>
      <ItemData ItemOID="IT.VS.VSSEQ" Value="39"/>
      <ItemData ItemOID="IT.VS.VSTESTCD" Value="WEIGHT"/>
      <ItemData ItemOID="IT.VS.VSTEST" Value="Weight"/>
      <ItemData ItemOID="IT.VS.VSORRES" Value="101.0"/>
      <ItemData ItemOID="IT.VS.VSORRESU" Value="LB"/>
      <ItemData ItemOID="IT.VS.VSSTRESC" Value="45.81"/>
      <ItemData ItemOID="IT.VS.VSSTRESN" Value="45.81"/>
      <ItemData ItemOID="IT.VS.VSSTRESU" Value="kg"/>
      <ItemData ItemOID="IT.VS.VISITNUM" Value="5"/>
      <ItemData ItemOID="IT.VS.VISIT" Value="WEEK 4"/>
      <ItemData ItemOID="IT.VS.EPOCH" Value="TREATMENT"/>
      <ItemData ItemOID="IT.VS.VSDTC" Value="2012-12-11"/>
      <ItemData ItemOID="IT.VS.VSDY" Value="27"/>
    </ItemGroupData>
    <ItemGroupData ItemGroupOID="IG.VS" data:ItemGroupDataSeq="97">
      <ItemData ItemOID="IT.VS.STUDYID" Value="CDISCPILOT01"/>
      <ItemData ItemOID="IT.VS.DOMAIN" Value="VS"/>
      <ItemData ItemOID="IT.VS.USUBJID" Value="CDISC002"/>
      <ItemData ItemOID="IT.VS.VSSEQ" Value="40"/>
      <ItemData ItemOID="IT.VS.VSTESTCD" Value="WEIGHT"/>
      <ItemData ItemOID="IT.VS.VSTEST" Value="Weight"/>
      <ItemData ItemOID="IT.VS.VSORRES" Value="100.0"/>
      <ItemData ItemOID="IT.VS.VSORRESU" Value="LB"/>
      <ItemData ItemOID="IT.VS.VSSTRESC" Value="45.36"/>
      <ItemData ItemOID="IT.VS.VSSTRESN" Value="45.36"/>
      <ItemData ItemOID="IT.VS.VSSTRESU" Value="kg"/>
      <ItemData ItemOID="IT.VS.VISITNUM" Value="7"/>
      <ItemData ItemOID="IT.VS.VISIT" Value="WEEK 6"/>
      <ItemData ItemOID="IT.VS.EPOCH" Value="TREATMENT"/>
      <ItemData ItemOID="IT.VS.VSDTC" Value="2012-12-25"/>
      <ItemData ItemOID="IT.VS.VSDY" Value="41"/>
    </ItemGroupData>
    <ItemGroupData ItemGroupOID="IG.VS" data:ItemGroupDataSeq="98">
      <ItemData ItemOID="IT.VS.STUDYID" Value="CDISCPILOT01"/>
      <ItemData ItemOID="IT.VS.DOMAIN" Value="VS"/>
      <ItemData ItemOID="IT.VS.USUBJID" Value="CDISC002"/>
      <ItemData ItemOID="IT.VS.VSSEQ" Value="41"/>
      <ItemData ItemOID="IT.VS.VSTESTCD" Value="WEIGHT"/>
      <ItemData ItemOID="IT.VS.VSTEST" Value="Weight"/>
      <ItemData ItemOID="IT.VS.VSORRES" Value="95.0"/>
      <ItemData ItemOID="IT.VS.VSORRESU" Value="LB"/>
      <ItemData ItemOID="IT.VS.VSSTRESC" Value="43.09"/>
      <ItemData ItemOID="IT.VS.VSSTRESN" Value="43.09"/>
      <ItemData ItemOID="IT.VS.VSSTRESU" Value="kg"/>
      <ItemData ItemOID="IT.VS.VISITNUM" Value="8"/>
      <ItemData ItemOID="IT.VS.VISIT" Value="WEEK 8"/>
      <ItemData ItemOID="IT.VS.EPOCH" Value="TREATMENT"/>
      <ItemData ItemOID="IT.VS.VSDTC" Value="2013-01-08"/>
      <ItemData ItemOID="IT.VS.VSDY" Value="55"/>
    </ItemGroupData>
    <ItemGroupData ItemGroupOID="IG.VS" data:ItemGroupDataSeq="99">
      <ItemData ItemOID="IT.VS.STUDYID" Value="CDISCPILOT01"/>
      <ItemData ItemOID="IT.VS.DOMAIN" Value="VS"/>
      <ItemData ItemOID="IT.VS.USUBJID" Value="CDISC003"/>
      <ItemData ItemOID="IT.VS.VSSEQ" Value="1"/>
      <ItemData ItemOID="IT.VS.VSTESTCD" Value="DIABP"/>
      <ItemData ItemOID="IT.VS.VSTEST" Value="Diastolic Blood Pressure"/>
      <ItemData ItemOID="IT.VS.VSPOS" Value="SUPINE"/>
      <ItemData ItemOID="IT.VS.VSORRES" Value="68"/>
      <ItemData ItemOID="IT.VS.VSORRESU" Value="mmHg"/>
      <ItemData ItemOID="IT.VS.VSSTRESC" Value="68"/>
      <ItemData ItemOID="IT.VS.VSSTRESN" Value="68"/>
      <ItemData ItemOID="IT.VS.VSSTRESU" Value="mmHg"/>
      <ItemData ItemOID="IT.VS.VSREPNUM" Value="1"/>
      <ItemData ItemOID="IT.VS.VISITNUM" Value="1"/>
      <ItemData ItemOID="IT.VS.VISIT" Value="SCREENING 1"/>
      <ItemData ItemOID="IT.VS.EPOCH" Value="SCREENING"/>
      <ItemData ItemOID="IT.VS.VSDTC" Value="2013-08-20"/>
      <ItemData ItemOID="IT.VS.VSDY" Value="-9"/>
    </ItemGroupData>
    <ItemGroupData ItemGroupOID="IG.VS" data:ItemGroupDataSeq="100">
      <ItemData ItemOID="IT.VS.STUDYID" Value="CDISCPILOT01"/>
      <ItemData ItemOID="IT.VS.DOMAIN" Value="VS"/>
      <ItemData ItemOID="IT.VS.USUBJID" Value="CDISC003"/>
      <ItemData ItemOID="IT.VS.VSSEQ" Value="2"/>
      <ItemData ItemOID="IT.VS.VSTESTCD" Value="DIABP"/>
      <ItemData ItemOID="IT.VS.VSTEST" Value="Diastolic Blood Pressure"/>
      <ItemData ItemOID="IT.VS.VSPOS" Value="STANDING"/>
      <ItemData ItemOID="IT.VS.VSORRES" Value="79"/>
      <ItemData ItemOID="IT.VS.VSORRESU" Value="mmHg"/>
      <ItemData ItemOID="IT.VS.VSSTRESC" Value="79"/>
      <ItemData ItemOID="IT.VS.VSSTRESN" Value="79"/>
      <ItemData ItemOID="IT.VS.VSSTRESU" Value="mmHg"/>
      <ItemData ItemOID="IT.VS.VSREPNUM" Value="2"/>
      <ItemData ItemOID="IT.VS.VISITNUM" Value="1"/>
      <ItemData ItemOID="IT.VS.VISIT" Value="SCREENING 1"/>
      <ItemData ItemOID="IT.VS.EPOCH" Value="SCREENING"/>
      <ItemData ItemOID="IT.VS.VSDTC" Value="2013-08-20"/>
      <ItemData ItemOID="IT.VS.VSDY" Value="-9"/>
    </ItemGroupData>
    <ItemGroupData ItemGroupOID="IG.VS" data:ItemGroupDataSeq="101">
      <ItemData ItemOID="IT.VS.STUDYID" Value="CDISCPILOT01"/>
      <ItemData ItemOID="IT.VS.DOMAIN" Value="VS"/>
      <ItemData ItemOID="IT.VS.USUBJID" Value="CDISC003"/>
      <ItemData ItemOID="IT.VS.VSSEQ" Value="3"/>
      <ItemData ItemOID="IT.VS.VSTESTCD" Value="DIABP"/>
      <ItemData ItemOID="IT.VS.VSTEST" Value="Diastolic Blood Pressure"/>
      <ItemData ItemOID="IT.VS.VSPOS" Value="STANDING"/>
      <ItemData ItemOID="IT.VS.VSORRES" Value="77"/>
      <ItemData ItemOID="IT.VS.VSORRESU" Value="mmHg"/>
      <ItemData ItemOID="IT.VS.VSSTRESC" Value="77"/>
      <ItemData ItemOID="IT.VS.VSSTRESN" Value="77"/>
      <ItemData ItemOID="IT.VS.VSSTRESU" Value="mmHg"/>
      <ItemData ItemOID="IT.VS.VSREPNUM" Value="3"/>
      <ItemData ItemOID="IT.VS.VISITNUM" Value="1"/>
      <ItemData ItemOID="IT.VS.VISIT" Value="SCREENING 1"/>
      <ItemData ItemOID="IT.VS.EPOCH" Value="SCREENING"/>
      <ItemData ItemOID="IT.VS.VSDTC" Value="2013-08-20"/>
      <ItemData ItemOID="IT.VS.VSDY" Value="-9"/>
    </ItemGroupData>
    <ItemGroupData ItemGroupOID="IG.VS" data:ItemGroupDataSeq="102">
      <ItemData ItemOID="IT.VS.STUDYID" Value="CDISCPILOT01"/>
      <ItemData ItemOID="IT.VS.DOMAIN" Value="VS"/>
      <ItemData ItemOID="IT.VS.USUBJID" Value="CDISC003"/>
      <ItemData ItemOID="IT.VS.VSSEQ" Value="4"/>
      <ItemData ItemOID="IT.VS.VSTESTCD" Value="DIABP"/>
      <ItemData ItemOID="IT.VS.VSTEST" Value="Diastolic Blood Pressure"/>
      <ItemData ItemOID="IT.VS.VSPOS" Value="SUPINE"/>
      <ItemData ItemOID="IT.VS.VSORRES" Value="68"/>
      <ItemData ItemOID="IT.VS.VSORRESU" Value="mmHg"/>
      <ItemData ItemOID="IT.VS.VSSTRESC" Value="68"/>
      <ItemData ItemOID="IT.VS.VSSTRESN" Value="68"/>
      <ItemData ItemOID="IT.VS.VSSTRESU" Value="mmHg"/>
      <ItemData ItemOID="IT.VS.VSREPNUM" Value="1"/>
      <ItemData ItemOID="IT.VS.VISITNUM" Value="2"/>
      <ItemData ItemOID="IT.VS.VISIT" Value="SCREENING 2"/>
      <ItemData ItemOID="IT.VS.EPOCH" Value="SCREENING"/>
      <ItemData ItemOID="IT.VS.VSDTC" Value="2013-08-27"/>
      <ItemData ItemOID="IT.VS.VSDY" Value="-2"/>
    </ItemGroupData>
    <ItemGroupData ItemGroupOID="IG.VS" data:ItemGroupDataSeq="103">
      <ItemData ItemOID="IT.VS.STUDYID" Value="CDISCPILOT01"/>
      <ItemData ItemOID="IT.VS.DOMAIN" Value="VS"/>
      <ItemData ItemOID="IT.VS.USUBJID" Value="CDISC003"/>
      <ItemData ItemOID="IT.VS.VSSEQ" Value="5"/>
      <ItemData ItemOID="IT.VS.VSTESTCD" Value="DIABP"/>
      <ItemData ItemOID="IT.VS.VSTEST" Value="Diastolic Blood Pressure"/>
      <ItemData ItemOID="IT.VS.VSPOS" Value="STANDING"/>
      <ItemData ItemOID="IT.VS.VSORRES" Value="75"/>
      <ItemData ItemOID="IT.VS.VSORRESU" Value="mmHg"/>
      <ItemData ItemOID="IT.VS.VSSTRESC" Value="75"/>
      <ItemData ItemOID="IT.VS.VSSTRESN" Value="75"/>
      <ItemData ItemOID="IT.VS.VSSTRESU" Value="mmHg"/>
      <ItemData ItemOID="IT.VS.VSREPNUM" Value="2"/>
      <ItemData ItemOID="IT.VS.VISITNUM" Value="2"/>
      <ItemData ItemOID="IT.VS.VISIT" Value="SCREENING 2"/>
      <ItemData ItemOID="IT.VS.EPOCH" Value="SCREENING"/>
      <ItemData ItemOID="IT.VS.VSDTC" Value="2013-08-27"/>
      <ItemData ItemOID="IT.VS.VSDY" Value="-2"/>
    </ItemGroupData>
    <ItemGroupData ItemGroupOID="IG.VS" data:ItemGroupDataSeq="104">
      <ItemData ItemOID="IT.VS.STUDYID" Value="CDISCPILOT01"/>
      <ItemData ItemOID="IT.VS.DOMAIN" Value="VS"/>
      <ItemData ItemOID="IT.VS.USUBJID" Value="CDISC003"/>
      <ItemData ItemOID="IT.VS.VSSEQ" Value="6"/>
      <ItemData ItemOID="IT.VS.VSTESTCD" Value="DIABP"/>
      <ItemData ItemOID="IT.VS.VSTEST" Value="Diastolic Blood Pressure"/>
      <ItemData ItemOID="IT.VS.VSPOS" Value="STANDING"/>
      <ItemData ItemOID="IT.VS.VSORRES" Value="76"/>
      <ItemData ItemOID="IT.VS.VSORRESU" Value="mmHg"/>
      <ItemData ItemOID="IT.VS.VSSTRESC" Value="76"/>
      <ItemData ItemOID="IT.VS.VSSTRESN" Value="76"/>
      <ItemData ItemOID="IT.VS.VSSTRESU" Value="mmHg"/>
      <ItemData ItemOID="IT.VS.VSREPNUM" Value="3"/>
      <ItemData ItemOID="IT.VS.VISITNUM" Value="2"/>
      <ItemData ItemOID="IT.VS.VISIT" Value="SCREENING 2"/>
      <ItemData ItemOID="IT.VS.EPOCH" Value="SCREENING"/>
      <ItemData ItemOID="IT.VS.VSDTC" Value="2013-08-27"/>
      <ItemData ItemOID="IT.VS.VSDY" Value="-2"/>
    </ItemGroupData>
    <ItemGroupData ItemGroupOID="IG.VS" data:ItemGroupDataSeq="105">
      <ItemData ItemOID="IT.VS.STUDYID" Value="CDISCPILOT01"/>
      <ItemData ItemOID="IT.VS.DOMAIN" Value="VS"/>
      <ItemData ItemOID="IT.VS.USUBJID" Value="CDISC003"/>
      <ItemData ItemOID="IT.VS.VSSEQ" Value="7"/>
      <ItemData ItemOID="IT.VS.VSTESTCD" Value="DIABP"/>
      <ItemData ItemOID="IT.VS.VSTEST" Value="Diastolic Blood Pressure"/>
      <ItemData ItemOID="IT.VS.VSPOS" Value="SUPINE"/>
      <ItemData ItemOID="IT.VS.VSORRES" Value="76"/>
      <ItemData ItemOID="IT.VS.VSORRESU" Value="mmHg"/>
      <ItemData ItemOID="IT.VS.VSSTRESC" Value="76"/>
      <ItemData ItemOID="IT.VS.VSSTRESN" Value="76"/>
      <ItemData ItemOID="IT.VS.VSSTRESU" Value="mmHg"/>
      <ItemData ItemOID="IT.VS.VSREPNUM" Value="1"/>
      <ItemData ItemOID="IT.VS.VISITNUM" Value="3"/>
      <ItemData ItemOID="IT.VS.VISIT" Value="BASELINE"/>
      <ItemData ItemOID="IT.VS.EPOCH" Value="SCREENING"/>
      <ItemData ItemOID="IT.VS.VSDTC" Value="2013-08-29"/>
      <ItemData ItemOID="IT.VS.VSDY" Value="1"/>
    </ItemGroupData>
    <ItemGroupData ItemGroupOID="IG.VS" data:ItemGroupDataSeq="106">
      <ItemData ItemOID="IT.VS.STUDYID" Value="CDISCPILOT01"/>
      <ItemData ItemOID="IT.VS.DOMAIN" Value="VS"/>
      <ItemData ItemOID="IT.VS.USUBJID" Value="CDISC003"/>
      <ItemData ItemOID="IT.VS.VSSEQ" Value="8"/>
      <ItemData ItemOID="IT.VS.VSTESTCD" Value="DIABP"/>
      <ItemData ItemOID="IT.VS.VSTEST" Value="Diastolic Blood Pressure"/>
      <ItemData ItemOID="IT.VS.VSPOS" Value="STANDING"/>
      <ItemData ItemOID="IT.VS.VSORRES" Value="87"/>
      <ItemData ItemOID="IT.VS.VSORRESU" Value="mmHg"/>
      <ItemData ItemOID="IT.VS.VSSTRESC" Value="87"/>
      <ItemData ItemOID="IT.VS.VSSTRESN" Value="87"/>
      <ItemData ItemOID="IT.VS.VSSTRESU" Value="mmHg"/>
      <ItemData ItemOID="IT.VS.VSREPNUM" Value="2"/>
      <ItemData ItemOID="IT.VS.VISITNUM" Value="3"/>
      <ItemData ItemOID="IT.VS.VISIT" Value="BASELINE"/>
      <ItemData ItemOID="IT.VS.EPOCH" Value="SCREENING"/>
      <ItemData ItemOID="IT.VS.VSDTC" Value="2013-08-29"/>
      <ItemData ItemOID="IT.VS.VSDY" Value="1"/>
    </ItemGroupData>
    <ItemGroupData ItemGroupOID="IG.VS" data:ItemGroupDataSeq="107">
      <ItemData ItemOID="IT.VS.STUDYID" Value="CDISCPILOT01"/>
      <ItemData ItemOID="IT.VS.DOMAIN" Value="VS"/>
      <ItemData ItemOID="IT.VS.USUBJID" Value="CDISC003"/>
      <ItemData ItemOID="IT.VS.VSSEQ" Value="9"/>
      <ItemData ItemOID="IT.VS.VSTESTCD" Value="DIABP"/>
      <ItemData ItemOID="IT.VS.VSTEST" Value="Diastolic Blood Pressure"/>
      <ItemData ItemOID="IT.VS.VSPOS" Value="STANDING"/>
      <ItemData ItemOID="IT.VS.VSORRES" Value="83"/>
      <ItemData ItemOID="IT.VS.VSORRESU" Value="mmHg"/>
      <ItemData ItemOID="IT.VS.VSSTRESC" Value="83"/>
      <ItemData ItemOID="IT.VS.VSSTRESN" Value="83"/>
      <ItemData ItemOID="IT.VS.VSSTRESU" Value="mmHg"/>
      <ItemData ItemOID="IT.VS.VSLOBXFL" Value="Y"/>
      <ItemData ItemOID="IT.VS.VSREPNUM" Value="3"/>
      <ItemData ItemOID="IT.VS.VISITNUM" Value="3"/>
      <ItemData ItemOID="IT.VS.VISIT" Value="BASELINE"/>
      <ItemData ItemOID="IT.VS.EPOCH" Value="SCREENING"/>
      <ItemData ItemOID="IT.VS.VSDTC" Value="2013-08-29"/>
      <ItemData ItemOID="IT.VS.VSDY" Value="1"/>
    </ItemGroupData>
    <ItemGroupData ItemGroupOID="IG.VS" data:ItemGroupDataSeq="108">
      <ItemData ItemOID="IT.VS.STUDYID" Value="CDISCPILOT01"/>
      <ItemData ItemOID="IT.VS.DOMAIN" Value="VS"/>
      <ItemData ItemOID="IT.VS.USUBJID" Value="CDISC003"/>
      <ItemData ItemOID="IT.VS.VSSEQ" Value="10"/>
      <ItemData ItemOID="IT.VS.VSTESTCD" Value="DIABP"/>
      <ItemData ItemOID="IT.VS.VSTEST" Value="Diastolic Blood Pressure"/>
      <ItemData ItemOID="IT.VS.VSPOS" Value="SUPINE"/>
      <ItemData ItemOID="IT.VS.VSORRES" Value="71"/>
      <ItemData ItemOID="IT.VS.VSORRESU" Value="mmHg"/>
      <ItemData ItemOID="IT.VS.VSSTRESC" Value="71"/>
      <ItemData ItemOID="IT.VS.VSSTRESN" Value="71"/>
      <ItemData ItemOID="IT.VS.VSSTRESU" Value="mmHg"/>
      <ItemData ItemOID="IT.VS.VSREPNUM" Value="1"/>
      <ItemData ItemOID="IT.VS.VISITNUM" Value="4"/>
      <ItemData ItemOID="IT.VS.VISIT" Value="WEEK 2"/>
      <ItemData ItemOID="IT.VS.EPOCH" Value="TREATMENT"/>
      <ItemData ItemOID="IT.VS.VSDTC" Value="2013-09-15"/>
      <ItemData ItemOID="IT.VS.VSDY" Value="18"/>
    </ItemGroupData>
    <ItemGroupData ItemGroupOID="IG.VS" data:ItemGroupDataSeq="109">
      <ItemData ItemOID="IT.VS.STUDYID" Value="CDISCPILOT01"/>
      <ItemData ItemOID="IT.VS.DOMAIN" Value="VS"/>
      <ItemData ItemOID="IT.VS.USUBJID" Value="CDISC003"/>
      <ItemData ItemOID="IT.VS.VSSEQ" Value="11"/>
      <ItemData ItemOID="IT.VS.VSTESTCD" Value="DIABP"/>
      <ItemData ItemOID="IT.VS.VSTEST" Value="Diastolic Blood Pressure"/>
      <ItemData ItemOID="IT.VS.VSPOS" Value="STANDING"/>
      <ItemData ItemOID="IT.VS.VSORRES" Value="79"/>
      <ItemData ItemOID="IT.VS.VSORRESU" Value="mmHg"/>
      <ItemData ItemOID="IT.VS.VSSTRESC" Value="79"/>
      <ItemData ItemOID="IT.VS.VSSTRESN" Value="79"/>
      <ItemData ItemOID="IT.VS.VSSTRESU" Value="mmHg"/>
      <ItemData ItemOID="IT.VS.VSREPNUM" Value="2"/>
      <ItemData ItemOID="IT.VS.VISITNUM" Value="4"/>
      <ItemData ItemOID="IT.VS.VISIT" Value="WEEK 2"/>
      <ItemData ItemOID="IT.VS.EPOCH" Value="TREATMENT"/>
      <ItemData ItemOID="IT.VS.VSDTC" Value="2013-09-15"/>
      <ItemData ItemOID="IT.VS.VSDY" Value="18"/>
    </ItemGroupData>
    <ItemGroupData ItemGroupOID="IG.VS" data:ItemGroupDataSeq="110">
      <ItemData ItemOID="IT.VS.STUDYID" Value="CDISCPILOT01"/>
      <ItemData ItemOID="IT.VS.DOMAIN" Value="VS"/>
      <ItemData ItemOID="IT.VS.USUBJID" Value="CDISC003"/>
      <ItemData ItemOID="IT.VS.VSSEQ" Value="12"/>
      <ItemData ItemOID="IT.VS.VSTESTCD" Value="DIABP"/>
      <ItemData ItemOID="IT.VS.VSTEST" Value="Diastolic Blood Pressure"/>
      <ItemData ItemOID="IT.VS.VSPOS" Value="STANDING"/>
      <ItemData ItemOID="IT.VS.VSORRES" Value="84"/>
      <ItemData ItemOID="IT.VS.VSORRESU" Value="mmHg"/>
      <ItemData ItemOID="IT.VS.VSSTRESC" Value="84"/>
      <ItemData ItemOID="IT.VS.VSSTRESN" Value="84"/>
      <ItemData ItemOID="IT.VS.VSSTRESU" Value="mmHg"/>
      <ItemData ItemOID="IT.VS.VSREPNUM" Value="3"/>
      <ItemData ItemOID="IT.VS.VISITNUM" Value="4"/>
      <ItemData ItemOID="IT.VS.VISIT" Value="WEEK 2"/>
      <ItemData ItemOID="IT.VS.EPOCH" Value="TREATMENT"/>
      <ItemData ItemOID="IT.VS.VSDTC" Value="2013-09-15"/>
      <ItemData ItemOID="IT.VS.VSDY" Value="18"/>
    </ItemGroupData>
    <ItemGroupData ItemGroupOID="IG.VS" data:ItemGroupDataSeq="111">
      <ItemData ItemOID="IT.VS.STUDYID" Value="CDISCPILOT01"/>
      <ItemData ItemOID="IT.VS.DOMAIN" Value="VS"/>
      <ItemData ItemOID="IT.VS.USUBJID" Value="CDISC003"/>
      <ItemData ItemOID="IT.VS.VSSEQ" Value="13"/>
      <ItemData ItemOID="IT.VS.VSTESTCD" Value="DIABP"/>
      <ItemData ItemOID="IT.VS.VSTEST" Value="Diastolic Blood Pressure"/>
      <ItemData ItemOID="IT.VS.VSPOS" Value="SUPINE"/>
      <ItemData ItemOID="IT.VS.VSORRES" Value="76"/>
      <ItemData ItemOID="IT.VS.VSORRESU" Value="mmHg"/>
      <ItemData ItemOID="IT.VS.VSSTRESC" Value="76"/>
      <ItemData ItemOID="IT.VS.VSSTRESN" Value="76"/>
      <ItemData ItemOID="IT.VS.VSSTRESU" Value="mmHg"/>
      <ItemData ItemOID="IT.VS.VSREPNUM" Value="1"/>
      <ItemData ItemOID="IT.VS.VISITNUM" Value="5"/>
      <ItemData ItemOID="IT.VS.VISIT" Value="WEEK 4"/>
      <ItemData ItemOID="IT.VS.EPOCH" Value="TREATMENT"/>
      <ItemData ItemOID="IT.VS.VSDTC" Value="2013-09-24"/>
      <ItemData ItemOID="IT.VS.VSDY" Value="27"/>
    </ItemGroupData>
    <ItemGroupData ItemGroupOID="IG.VS" data:ItemGroupDataSeq="112">
      <ItemData ItemOID="IT.VS.STUDYID" Value="CDISCPILOT01"/>
      <ItemData ItemOID="IT.VS.DOMAIN" Value="VS"/>
      <ItemData ItemOID="IT.VS.USUBJID" Value="CDISC003"/>
      <ItemData ItemOID="IT.VS.VSSEQ" Value="14"/>
      <ItemData ItemOID="IT.VS.VSTESTCD" Value="DIABP"/>
      <ItemData ItemOID="IT.VS.VSTEST" Value="Diastolic Blood Pressure"/>
      <ItemData ItemOID="IT.VS.VSPOS" Value="STANDING"/>
      <ItemData ItemOID="IT.VS.VSORRES" Value="80"/>
      <ItemData ItemOID="IT.VS.VSORRESU" Value="mmHg"/>
      <ItemData ItemOID="IT.VS.VSSTRESC" Value="80"/>
      <ItemData ItemOID="IT.VS.VSSTRESN" Value="80"/>
      <ItemData ItemOID="IT.VS.VSSTRESU" Value="mmHg"/>
      <ItemData ItemOID="IT.VS.VSREPNUM" Value="2"/>
      <ItemData ItemOID="IT.VS.VISITNUM" Value="5"/>
      <ItemData ItemOID="IT.VS.VISIT" Value="WEEK 4"/>
      <ItemData ItemOID="IT.VS.EPOCH" Value="TREATMENT"/>
      <ItemData ItemOID="IT.VS.VSDTC" Value="2013-09-24"/>
      <ItemData ItemOID="IT.VS.VSDY" Value="27"/>
    </ItemGroupData>
    <ItemGroupData ItemGroupOID="IG.VS" data:ItemGroupDataSeq="113">
      <ItemData ItemOID="IT.VS.STUDYID" Value="CDISCPILOT01"/>
      <ItemData ItemOID="IT.VS.DOMAIN" Value="VS"/>
      <ItemData ItemOID="IT.VS.USUBJID" Value="CDISC003"/>
      <ItemData ItemOID="IT.VS.VSSEQ" Value="15"/>
      <ItemData ItemOID="IT.VS.VSTESTCD" Value="DIABP"/>
      <ItemData ItemOID="IT.VS.VSTEST" Value="Diastolic Blood Pressure"/>
      <ItemData ItemOID="IT.VS.VSPOS" Value="STANDING"/>
      <ItemData ItemOID="IT.VS.VSORRES" Value="80"/>
      <ItemData ItemOID="IT.VS.VSORRESU" Value="mmHg"/>
      <ItemData ItemOID="IT.VS.VSSTRESC" Value="80"/>
      <ItemData ItemOID="IT.VS.VSSTRESN" Value="80"/>
      <ItemData ItemOID="IT.VS.VSSTRESU" Value="mmHg"/>
      <ItemData ItemOID="IT.VS.VSREPNUM" Value="3"/>
      <ItemData ItemOID="IT.VS.VISITNUM" Value="5"/>
      <ItemData ItemOID="IT.VS.VISIT" Value="WEEK 4"/>
      <ItemData ItemOID="IT.VS.EPOCH" Value="TREATMENT"/>
      <ItemData ItemOID="IT.VS.VSDTC" Value="2013-09-24"/>
      <ItemData ItemOID="IT.VS.VSDY" Value="27"/>
    </ItemGroupData>
    <ItemGroupData ItemGroupOID="IG.VS" data:ItemGroupDataSeq="114">
      <ItemData ItemOID="IT.VS.STUDYID" Value="CDISCPILOT01"/>
      <ItemData ItemOID="IT.VS.DOMAIN" Value="VS"/>
      <ItemData ItemOID="IT.VS.USUBJID" Value="CDISC003"/>
      <ItemData ItemOID="IT.VS.VSSEQ" Value="16"/>
      <ItemData ItemOID="IT.VS.VSTESTCD" Value="DIABP"/>
      <ItemData ItemOID="IT.VS.VSTEST" Value="Diastolic Blood Pressure"/>
      <ItemData ItemOID="IT.VS.VSPOS" Value="SUPINE"/>
      <ItemData ItemOID="IT.VS.VSORRES" Value="65"/>
      <ItemData ItemOID="IT.VS.VSORRESU" Value="mmHg"/>
      <ItemData ItemOID="IT.VS.VSSTRESC" Value="65"/>
      <ItemData ItemOID="IT.VS.VSSTRESN" Value="65"/>
      <ItemData ItemOID="IT.VS.VSSTRESU" Value="mmHg"/>
      <ItemData ItemOID="IT.VS.VSREPNUM" Value="1"/>
      <ItemData ItemOID="IT.VS.VISITNUM" Value="7"/>
      <ItemData ItemOID="IT.VS.VISIT" Value="WEEK 6"/>
      <ItemData ItemOID="IT.VS.EPOCH" Value="TREATMENT"/>
      <ItemData ItemOID="IT.VS.VSDTC" Value="2013-10-08"/>
      <ItemData ItemOID="IT.VS.VSDY" Value="41"/>
    </ItemGroupData>
    <ItemGroupData ItemGroupOID="IG.VS" data:ItemGroupDataSeq="115">
      <ItemData ItemOID="IT.VS.STUDYID" Value="CDISCPILOT01"/>
      <ItemData ItemOID="IT.VS.DOMAIN" Value="VS"/>
      <ItemData ItemOID="IT.VS.USUBJID" Value="CDISC003"/>
      <ItemData ItemOID="IT.VS.VSSEQ" Value="17"/>
      <ItemData ItemOID="IT.VS.VSTESTCD" Value="DIABP"/>
      <ItemData ItemOID="IT.VS.VSTEST" Value="Diastolic Blood Pressure"/>
      <ItemData ItemOID="IT.VS.VSPOS" Value="STANDING"/>
      <ItemData ItemOID="IT.VS.VSORRES" Value="70"/>
      <ItemData ItemOID="IT.VS.VSORRESU" Value="mmHg"/>
      <ItemData ItemOID="IT.VS.VSSTRESC" Value="70"/>
      <ItemData ItemOID="IT.VS.VSSTRESN" Value="70"/>
      <ItemData ItemOID="IT.VS.VSSTRESU" Value="mmHg"/>
      <ItemData ItemOID="IT.VS.VSREPNUM" Value="2"/>
      <ItemData ItemOID="IT.VS.VISITNUM" Value="7"/>
      <ItemData ItemOID="IT.VS.VISIT" Value="WEEK 6"/>
      <ItemData ItemOID="IT.VS.EPOCH" Value="TREATMENT"/>
      <ItemData ItemOID="IT.VS.VSDTC" Value="2013-10-08"/>
      <ItemData ItemOID="IT.VS.VSDY" Value="41"/>
    </ItemGroupData>
    <ItemGroupData ItemGroupOID="IG.VS" data:ItemGroupDataSeq="116">
      <ItemData ItemOID="IT.VS.STUDYID" Value="CDISCPILOT01"/>
      <ItemData ItemOID="IT.VS.DOMAIN" Value="VS"/>
      <ItemData ItemOID="IT.VS.USUBJID" Value="CDISC003"/>
      <ItemData ItemOID="IT.VS.VSSEQ" Value="18"/>
      <ItemData ItemOID="IT.VS.VSTESTCD" Value="DIABP"/>
      <ItemData ItemOID="IT.VS.VSTEST" Value="Diastolic Blood Pressure"/>
      <ItemData ItemOID="IT.VS.VSPOS" Value="STANDING"/>
      <ItemData ItemOID="IT.VS.VSORRES" Value="76"/>
      <ItemData ItemOID="IT.VS.VSORRESU" Value="mmHg"/>
      <ItemData ItemOID="IT.VS.VSSTRESC" Value="76"/>
      <ItemData ItemOID="IT.VS.VSSTRESN" Value="76"/>
      <ItemData ItemOID="IT.VS.VSSTRESU" Value="mmHg"/>
      <ItemData ItemOID="IT.VS.VSREPNUM" Value="3"/>
      <ItemData ItemOID="IT.VS.VISITNUM" Value="7"/>
      <ItemData ItemOID="IT.VS.VISIT" Value="WEEK 6"/>
      <ItemData ItemOID="IT.VS.EPOCH" Value="TREATMENT"/>
      <ItemData ItemOID="IT.VS.VSDTC" Value="2013-10-08"/>
      <ItemData ItemOID="IT.VS.VSDY" Value="41"/>
    </ItemGroupData>
    <ItemGroupData ItemGroupOID="IG.VS" data:ItemGroupDataSeq="117">
      <ItemData ItemOID="IT.VS.STUDYID" Value="CDISCPILOT01"/>
      <ItemData ItemOID="IT.VS.DOMAIN" Value="VS"/>
      <ItemData ItemOID="IT.VS.USUBJID" Value="CDISC003"/>
      <ItemData ItemOID="IT.VS.VSSEQ" Value="19"/>
      <ItemData ItemOID="IT.VS.VSTESTCD" Value="DIABP"/>
      <ItemData ItemOID="IT.VS.VSTEST" Value="Diastolic Blood Pressure"/>
      <ItemData ItemOID="IT.VS.VSPOS" Value="SUPINE"/>
      <ItemData ItemOID="IT.VS.VSORRES" Value="77"/>
      <ItemData ItemOID="IT.VS.VSORRESU" Value="mmHg"/>
      <ItemData ItemOID="IT.VS.VSSTRESC" Value="77"/>
      <ItemData ItemOID="IT.VS.VSSTRESN" Value="77"/>
      <ItemData ItemOID="IT.VS.VSSTRESU" Value="mmHg"/>
      <ItemData ItemOID="IT.VS.VSREPNUM" Value="1"/>
      <ItemData ItemOID="IT.VS.VISITNUM" Value="8"/>
      <ItemData ItemOID="IT.VS.VISIT" Value="WEEK 8"/>
      <ItemData ItemOID="IT.VS.EPOCH" Value="TREATMENT"/>
      <ItemData ItemOID="IT.VS.VSDTC" Value="2013-10-22"/>
      <ItemData ItemOID="IT.VS.VSDY" Value="55"/>
    </ItemGroupData>
    <ItemGroupData ItemGroupOID="IG.VS" data:ItemGroupDataSeq="118">
      <ItemData ItemOID="IT.VS.STUDYID" Value="CDISCPILOT01"/>
      <ItemData ItemOID="IT.VS.DOMAIN" Value="VS"/>
      <ItemData ItemOID="IT.VS.USUBJID" Value="CDISC003"/>
      <ItemData ItemOID="IT.VS.VSSEQ" Value="20"/>
      <ItemData ItemOID="IT.VS.VSTESTCD" Value="DIABP"/>
      <ItemData ItemOID="IT.VS.VSTEST" Value="Diastolic Blood Pressure"/>
      <ItemData ItemOID="IT.VS.VSPOS" Value="STANDING"/>
      <ItemData ItemOID="IT.VS.VSORRES" Value="84"/>
      <ItemData ItemOID="IT.VS.VSORRESU" Value="mmHg"/>
      <ItemData ItemOID="IT.VS.VSSTRESC" Value="84"/>
      <ItemData ItemOID="IT.VS.VSSTRESN" Value="84"/>
      <ItemData ItemOID="IT.VS.VSSTRESU" Value="mmHg"/>
      <ItemData ItemOID="IT.VS.VSREPNUM" Value="2"/>
      <ItemData ItemOID="IT.VS.VISITNUM" Value="8"/>
      <ItemData ItemOID="IT.VS.VISIT" Value="WEEK 8"/>
      <ItemData ItemOID="IT.VS.EPOCH" Value="TREATMENT"/>
      <ItemData ItemOID="IT.VS.VSDTC" Value="2013-10-22"/>
      <ItemData ItemOID="IT.VS.VSDY" Value="55"/>
    </ItemGroupData>
    <ItemGroupData ItemGroupOID="IG.VS" data:ItemGroupDataSeq="119">
      <ItemData ItemOID="IT.VS.STUDYID" Value="CDISCPILOT01"/>
      <ItemData ItemOID="IT.VS.DOMAIN" Value="VS"/>
      <ItemData ItemOID="IT.VS.USUBJID" Value="CDISC003"/>
      <ItemData ItemOID="IT.VS.VSSEQ" Value="21"/>
      <ItemData ItemOID="IT.VS.VSTESTCD" Value="DIABP"/>
      <ItemData ItemOID="IT.VS.VSTEST" Value="Diastolic Blood Pressure"/>
      <ItemData ItemOID="IT.VS.VSPOS" Value="STANDING"/>
      <ItemData ItemOID="IT.VS.VSORRES" Value="91"/>
      <ItemData ItemOID="IT.VS.VSORRESU" Value="mmHg"/>
      <ItemData ItemOID="IT.VS.VSSTRESC" Value="91"/>
      <ItemData ItemOID="IT.VS.VSSTRESN" Value="91"/>
      <ItemData ItemOID="IT.VS.VSSTRESU" Value="mmHg"/>
      <ItemData ItemOID="IT.VS.VSREPNUM" Value="3"/>
      <ItemData ItemOID="IT.VS.VISITNUM" Value="8"/>
      <ItemData ItemOID="IT.VS.VISIT" Value="WEEK 8"/>
      <ItemData ItemOID="IT.VS.EPOCH" Value="TREATMENT"/>
      <ItemData ItemOID="IT.VS.VSDTC" Value="2013-10-22"/>
      <ItemData ItemOID="IT.VS.VSDY" Value="55"/>
    </ItemGroupData>
    <ItemGroupData ItemGroupOID="IG.VS" data:ItemGroupDataSeq="120">
      <ItemData ItemOID="IT.VS.STUDYID" Value="CDISCPILOT01"/>
      <ItemData ItemOID="IT.VS.DOMAIN" Value="VS"/>
      <ItemData ItemOID="IT.VS.USUBJID" Value="CDISC003"/>
      <ItemData ItemOID="IT.VS.VSSEQ" Value="22"/>
      <ItemData ItemOID="IT.VS.VSTESTCD" Value="DIABP"/>
      <ItemData ItemOID="IT.VS.VSTEST" Value="Diastolic Blood Pressure"/>
      <ItemData ItemOID="IT.VS.VSPOS" Value="SUPINE"/>
      <ItemData ItemOID="IT.VS.VSORRES" Value="76"/>
      <ItemData ItemOID="IT.VS.VSORRESU" Value="mmHg"/>
      <ItemData ItemOID="IT.VS.VSSTRESC" Value="76"/>
      <ItemData ItemOID="IT.VS.VSSTRESN" Value="76"/>
      <ItemData ItemOID="IT.VS.VSSTRESU" Value="mmHg"/>
      <ItemData ItemOID="IT.VS.VSREPNUM" Value="1"/>
      <ItemData ItemOID="IT.VS.VISITNUM" Value="9"/>
      <ItemData ItemOID="IT.VS.VISIT" Value="WEEK 12"/>
      <ItemData ItemOID="IT.VS.EPOCH" Value="TREATMENT"/>
      <ItemData ItemOID="IT.VS.VSDTC" Value="2013-11-05"/>
      <ItemData ItemOID="IT.VS.VSDY" Value="69"/>
    </ItemGroupData>
    <ItemGroupData ItemGroupOID="IG.VS" data:ItemGroupDataSeq="121">
      <ItemData ItemOID="IT.VS.STUDYID" Value="CDISCPILOT01"/>
      <ItemData ItemOID="IT.VS.DOMAIN" Value="VS"/>
      <ItemData ItemOID="IT.VS.USUBJID" Value="CDISC003"/>
      <ItemData ItemOID="IT.VS.VSSEQ" Value="23"/>
      <ItemData ItemOID="IT.VS.VSTESTCD" Value="DIABP"/>
      <ItemData ItemOID="IT.VS.VSTEST" Value="Diastolic Blood Pressure"/>
      <ItemData ItemOID="IT.VS.VSPOS" Value="STANDING"/>
      <ItemData ItemOID="IT.VS.VSORRES" Value="81"/>
      <ItemData ItemOID="IT.VS.VSORRESU" Value="mmHg"/>
      <ItemData ItemOID="IT.VS.VSSTRESC" Value="81"/>
      <ItemData ItemOID="IT.VS.VSSTRESN" Value="81"/>
      <ItemData ItemOID="IT.VS.VSSTRESU" Value="mmHg"/>
      <ItemData ItemOID="IT.VS.VSREPNUM" Value="2"/>
      <ItemData ItemOID="IT.VS.VISITNUM" Value="9"/>
      <ItemData ItemOID="IT.VS.VISIT" Value="WEEK 12"/>
      <ItemData ItemOID="IT.VS.EPOCH" Value="TREATMENT"/>
      <ItemData ItemOID="IT.VS.VSDTC" Value="2013-11-05"/>
      <ItemData ItemOID="IT.VS.VSDY" Value="69"/>
    </ItemGroupData>
    <ItemGroupData ItemGroupOID="IG.VS" data:ItemGroupDataSeq="122">
      <ItemData ItemOID="IT.VS.STUDYID" Value="CDISCPILOT01"/>
      <ItemData ItemOID="IT.VS.DOMAIN" Value="VS"/>
      <ItemData ItemOID="IT.VS.USUBJID" Value="CDISC003"/>
      <ItemData ItemOID="IT.VS.VSSEQ" Value="24"/>
      <ItemData ItemOID="IT.VS.VSTESTCD" Value="DIABP"/>
      <ItemData ItemOID="IT.VS.VSTEST" Value="Diastolic Blood Pressure"/>
      <ItemData ItemOID="IT.VS.VSPOS" Value="STANDING"/>
      <ItemData ItemOID="IT.VS.VSORRES" Value="81"/>
      <ItemData ItemOID="IT.VS.VSORRESU" Value="mmHg"/>
      <ItemData ItemOID="IT.VS.VSSTRESC" Value="81"/>
      <ItemData ItemOID="IT.VS.VSSTRESN" Value="81"/>
      <ItemData ItemOID="IT.VS.VSSTRESU" Value="mmHg"/>
      <ItemData ItemOID="IT.VS.VSREPNUM" Value="3"/>
      <ItemData ItemOID="IT.VS.VISITNUM" Value="9"/>
      <ItemData ItemOID="IT.VS.VISIT" Value="WEEK 12"/>
      <ItemData ItemOID="IT.VS.EPOCH" Value="TREATMENT"/>
      <ItemData ItemOID="IT.VS.VSDTC" Value="2013-11-05"/>
      <ItemData ItemOID="IT.VS.VSDY" Value="69"/>
    </ItemGroupData>
    <ItemGroupData ItemGroupOID="IG.VS" data:ItemGroupDataSeq="123">
      <ItemData ItemOID="IT.VS.STUDYID" Value="CDISCPILOT01"/>
      <ItemData ItemOID="IT.VS.DOMAIN" Value="VS"/>
      <ItemData ItemOID="IT.VS.USUBJID" Value="CDISC003"/>
      <ItemData ItemOID="IT.VS.VSSEQ" Value="25"/>
      <ItemData ItemOID="IT.VS.VSTESTCD" Value="DIABP"/>
      <ItemData ItemOID="IT.VS.VSTEST" Value="Diastolic Blood Pressure"/>
      <ItemData ItemOID="IT.VS.VSPOS" Value="SUPINE"/>
      <ItemData ItemOID="IT.VS.VSORRES" Value="75"/>
      <ItemData ItemOID="IT.VS.VSORRESU" Value="mmHg"/>
      <ItemData ItemOID="IT.VS.VSSTRESC" Value="75"/>
      <ItemData ItemOID="IT.VS.VSSTRESN" Value="75"/>
      <ItemData ItemOID="IT.VS.VSSTRESU" Value="mmHg"/>
      <ItemData ItemOID="IT.VS.VSREPNUM" Value="1"/>
      <ItemData ItemOID="IT.VS.VISITNUM" Value="201"/>
      <ItemData ItemOID="IT.VS.VISIT" Value="EARLY DISCONTINUATION RETRIEVAL"/>
      <ItemData ItemOID="IT.VS.EPOCH" Value="TREATMENT"/>
      <ItemData ItemOID="IT.VS.VSDTC" Value="2014-02-13"/>
      <ItemData ItemOID="IT.VS.VSDY" Value="169"/>
    </ItemGroupData>
    <ItemGroupData ItemGroupOID="IG.VS" data:ItemGroupDataSeq="124">
      <ItemData ItemOID="IT.VS.STUDYID" Value="CDISCPILOT01"/>
      <ItemData ItemOID="IT.VS.DOMAIN" Value="VS"/>
      <ItemData ItemOID="IT.VS.USUBJID" Value="CDISC003"/>
      <ItemData ItemOID="IT.VS.VSSEQ" Value="26"/>
      <ItemData ItemOID="IT.VS.VSTESTCD" Value="DIABP"/>
      <ItemData ItemOID="IT.VS.VSTEST" Value="Diastolic Blood Pressure"/>
      <ItemData ItemOID="IT.VS.VSPOS" Value="STANDING"/>
      <ItemData ItemOID="IT.VS.VSORRES" Value="83"/>
      <ItemData ItemOID="IT.VS.VSORRESU" Value="mmHg"/>
      <ItemData ItemOID="IT.VS.VSSTRESC" Value="83"/>
      <ItemData ItemOID="IT.VS.VSSTRESN" Value="83"/>
      <ItemData ItemOID="IT.VS.VSSTRESU" Value="mmHg"/>
      <ItemData ItemOID="IT.VS.VSREPNUM" Value="2"/>
      <ItemData ItemOID="IT.VS.VISITNUM" Value="201"/>
      <ItemData ItemOID="IT.VS.VISIT" Value="EARLY DISCONTINUATION RETRIEVAL"/>
      <ItemData ItemOID="IT.VS.EPOCH" Value="TREATMENT"/>
      <ItemData ItemOID="IT.VS.VSDTC" Value="2014-02-13"/>
      <ItemData ItemOID="IT.VS.VSDY" Value="169"/>
    </ItemGroupData>
    <ItemGroupData ItemGroupOID="IG.VS" data:ItemGroupDataSeq="125">
      <ItemData ItemOID="IT.VS.STUDYID" Value="CDISCPILOT01"/>
      <ItemData ItemOID="IT.VS.DOMAIN" Value="VS"/>
      <ItemData ItemOID="IT.VS.USUBJID" Value="CDISC003"/>
      <ItemData ItemOID="IT.VS.VSSEQ" Value="27"/>
      <ItemData ItemOID="IT.VS.VSTESTCD" Value="DIABP"/>
      <ItemData ItemOID="IT.VS.VSTEST" Value="Diastolic Blood Pressure"/>
      <ItemData ItemOID="IT.VS.VSPOS" Value="STANDING"/>
      <ItemData ItemOID="IT.VS.VSORRES" Value="80"/>
      <ItemData ItemOID="IT.VS.VSORRESU" Value="mmHg"/>
      <ItemData ItemOID="IT.VS.VSSTRESC" Value="80"/>
      <ItemData ItemOID="IT.VS.VSSTRESN" Value="80"/>
      <ItemData ItemOID="IT.VS.VSSTRESU" Value="mmHg"/>
      <ItemData ItemOID="IT.VS.VSREPNUM" Value="3"/>
      <ItemData ItemOID="IT.VS.VISITNUM" Value="201"/>
      <ItemData ItemOID="IT.VS.VISIT" Value="EARLY DISCONTINUATION RETRIEVAL"/>
      <ItemData ItemOID="IT.VS.EPOCH" Value="TREATMENT"/>
      <ItemData ItemOID="IT.VS.VSDTC" Value="2014-02-13"/>
      <ItemData ItemOID="IT.VS.VSDY" Value="169"/>
    </ItemGroupData>
    <ItemGroupData ItemGroupOID="IG.VS" data:ItemGroupDataSeq="126">
      <ItemData ItemOID="IT.VS.STUDYID" Value="CDISCPILOT01"/>
      <ItemData ItemOID="IT.VS.DOMAIN" Value="VS"/>
      <ItemData ItemOID="IT.VS.USUBJID" Value="CDISC003"/>
      <ItemData ItemOID="IT.VS.VSSEQ" Value="28"/>
      <ItemData ItemOID="IT.VS.VSTESTCD" Value="HEIGHT"/>
      <ItemData ItemOID="IT.VS.VSTEST" Value="Height"/>
      <ItemData ItemOID="IT.VS.VSORRES" Value="70.0"/>
      <ItemData ItemOID="IT.VS.VSORRESU" Value="in"/>
      <ItemData ItemOID="IT.VS.VSSTRESC" Value="177.8"/>
      <ItemData ItemOID="IT.VS.VSSTRESN" Value="177.8"/>
      <ItemData ItemOID="IT.VS.VSSTRESU" Value="cm"/>
      <ItemData ItemOID="IT.VS.VISITNUM" Value="1"/>
      <ItemData ItemOID="IT.VS.VISIT" Value="SCREENING 1"/>
      <ItemData ItemOID="IT.VS.EPOCH" Value="SCREENING"/>
      <ItemData ItemOID="IT.VS.VSDTC" Value="2013-08-20"/>
      <ItemData ItemOID="IT.VS.VSDY" Value="-9"/>
    </ItemGroupData>
    <ItemGroupData ItemGroupOID="IG.VS" data:ItemGroupDataSeq="127">
      <ItemData ItemOID="IT.VS.STUDYID" Value="CDISCPILOT01"/>
      <ItemData ItemOID="IT.VS.DOMAIN" Value="VS"/>
      <ItemData ItemOID="IT.VS.USUBJID" Value="CDISC003"/>
      <ItemData ItemOID="IT.VS.VSSEQ" Value="29"/>
      <ItemData ItemOID="IT.VS.VSTESTCD" Value="PULSE"/>
      <ItemData ItemOID="IT.VS.VSTEST" Value="Pulse Rate"/>
      <ItemData ItemOID="IT.VS.VSPOS" Value="SUPINE"/>
      <ItemData ItemOID="IT.VS.VSORRES" Value="58"/>
      <ItemData ItemOID="IT.VS.VSORRESU" Value="beats/min"/>
      <ItemData ItemOID="IT.VS.VSSTRESC" Value="58"/>
      <ItemData ItemOID="IT.VS.VSSTRESN" Value="58"/>
      <ItemData ItemOID="IT.VS.VSSTRESU" Value="beats/min"/>
      <ItemData ItemOID="IT.VS.VSREPNUM" Value="1"/>
      <ItemData ItemOID="IT.VS.VISITNUM" Value="1"/>
      <ItemData ItemOID="IT.VS.VISIT" Value="SCREENING 1"/>
      <ItemData ItemOID="IT.VS.EPOCH" Value="SCREENING"/>
      <ItemData ItemOID="IT.VS.VSDTC" Value="2013-08-20"/>
      <ItemData ItemOID="IT.VS.VSDY" Value="-9"/>
    </ItemGroupData>
    <ItemGroupData ItemGroupOID="IG.VS" data:ItemGroupDataSeq="128">
      <ItemData ItemOID="IT.VS.STUDYID" Value="CDISCPILOT01"/>
      <ItemData ItemOID="IT.VS.DOMAIN" Value="VS"/>
      <ItemData ItemOID="IT.VS.USUBJID" Value="CDISC003"/>
      <ItemData ItemOID="IT.VS.VSSEQ" Value="30"/>
      <ItemData ItemOID="IT.VS.VSTESTCD" Value="PULSE"/>
      <ItemData ItemOID="IT.VS.VSTEST" Value="Pulse Rate"/>
      <ItemData ItemOID="IT.VS.VSPOS" Value="STANDING"/>
      <ItemData ItemOID="IT.VS.VSORRES" Value="68"/>
      <ItemData ItemOID="IT.VS.VSORRESU" Value="beats/min"/>
      <ItemData ItemOID="IT.VS.VSSTRESC" Value="68"/>
      <ItemData ItemOID="IT.VS.VSSTRESN" Value="68"/>
      <ItemData ItemOID="IT.VS.VSSTRESU" Value="beats/min"/>
      <ItemData ItemOID="IT.VS.VSREPNUM" Value="2"/>
      <ItemData ItemOID="IT.VS.VISITNUM" Value="1"/>
      <ItemData ItemOID="IT.VS.VISIT" Value="SCREENING 1"/>
      <ItemData ItemOID="IT.VS.EPOCH" Value="SCREENING"/>
      <ItemData ItemOID="IT.VS.VSDTC" Value="2013-08-20"/>
      <ItemData ItemOID="IT.VS.VSDY" Value="-9"/>
    </ItemGroupData>
    <ItemGroupData ItemGroupOID="IG.VS" data:ItemGroupDataSeq="129">
      <ItemData ItemOID="IT.VS.STUDYID" Value="CDISCPILOT01"/>
      <ItemData ItemOID="IT.VS.DOMAIN" Value="VS"/>
      <ItemData ItemOID="IT.VS.USUBJID" Value="CDISC003"/>
      <ItemData ItemOID="IT.VS.VSSEQ" Value="31"/>
      <ItemData ItemOID="IT.VS.VSTESTCD" Value="PULSE"/>
      <ItemData ItemOID="IT.VS.VSTEST" Value="Pulse Rate"/>
      <ItemData ItemOID="IT.VS.VSPOS" Value="STANDING"/>
      <ItemData ItemOID="IT.VS.VSORRES" Value="64"/>
      <ItemData ItemOID="IT.VS.VSORRESU" Value="beats/min"/>
      <ItemData ItemOID="IT.VS.VSSTRESC" Value="64"/>
      <ItemData ItemOID="IT.VS.VSSTRESN" Value="64"/>
      <ItemData ItemOID="IT.VS.VSSTRESU" Value="beats/min"/>
      <ItemData ItemOID="IT.VS.VSREPNUM" Value="3"/>
      <ItemData ItemOID="IT.VS.VISITNUM" Value="1"/>
      <ItemData ItemOID="IT.VS.VISIT" Value="SCREENING 1"/>
      <ItemData ItemOID="IT.VS.EPOCH" Value="SCREENING"/>
      <ItemData ItemOID="IT.VS.VSDTC" Value="2013-08-20"/>
      <ItemData ItemOID="IT.VS.VSDY" Value="-9"/>
    </ItemGroupData>
    <ItemGroupData ItemGroupOID="IG.VS" data:ItemGroupDataSeq="130">
      <ItemData ItemOID="IT.VS.STUDYID" Value="CDISCPILOT01"/>
      <ItemData ItemOID="IT.VS.DOMAIN" Value="VS"/>
      <ItemData ItemOID="IT.VS.USUBJID" Value="CDISC003"/>
      <ItemData ItemOID="IT.VS.VSSEQ" Value="32"/>
      <ItemData ItemOID="IT.VS.VSTESTCD" Value="PULSE"/>
      <ItemData ItemOID="IT.VS.VSTEST" Value="Pulse Rate"/>
      <ItemData ItemOID="IT.VS.VSPOS" Value="SUPINE"/>
      <ItemData ItemOID="IT.VS.VSORRES" Value="59"/>
      <ItemData ItemOID="IT.VS.VSORRESU" Value="beats/min"/>
      <ItemData ItemOID="IT.VS.VSSTRESC" Value="59"/>
      <ItemData ItemOID="IT.VS.VSSTRESN" Value="59"/>
      <ItemData ItemOID="IT.VS.VSSTRESU" Value="beats/min"/>
      <ItemData ItemOID="IT.VS.VSREPNUM" Value="1"/>
      <ItemData ItemOID="IT.VS.VISITNUM" Value="2"/>
      <ItemData ItemOID="IT.VS.VISIT" Value="SCREENING 2"/>
      <ItemData ItemOID="IT.VS.EPOCH" Value="SCREENING"/>
      <ItemData ItemOID="IT.VS.VSDTC" Value="2013-08-27"/>
      <ItemData ItemOID="IT.VS.VSDY" Value="-2"/>
    </ItemGroupData>
    <ItemGroupData ItemGroupOID="IG.VS" data:ItemGroupDataSeq="131">
      <ItemData ItemOID="IT.VS.STUDYID" Value="CDISCPILOT01"/>
      <ItemData ItemOID="IT.VS.DOMAIN" Value="VS"/>
      <ItemData ItemOID="IT.VS.USUBJID" Value="CDISC003"/>
      <ItemData ItemOID="IT.VS.VSSEQ" Value="33"/>
      <ItemData ItemOID="IT.VS.VSTESTCD" Value="PULSE"/>
      <ItemData ItemOID="IT.VS.VSTEST" Value="Pulse Rate"/>
      <ItemData ItemOID="IT.VS.VSPOS" Value="STANDING"/>
      <ItemData ItemOID="IT.VS.VSORRES" Value="65"/>
      <ItemData ItemOID="IT.VS.VSORRESU" Value="beats/min"/>
      <ItemData ItemOID="IT.VS.VSSTRESC" Value="65"/>
      <ItemData ItemOID="IT.VS.VSSTRESN" Value="65"/>
      <ItemData ItemOID="IT.VS.VSSTRESU" Value="beats/min"/>
      <ItemData ItemOID="IT.VS.VSREPNUM" Value="2"/>
      <ItemData ItemOID="IT.VS.VISITNUM" Value="2"/>
      <ItemData ItemOID="IT.VS.VISIT" Value="SCREENING 2"/>
      <ItemData ItemOID="IT.VS.EPOCH" Value="SCREENING"/>
      <ItemData ItemOID="IT.VS.VSDTC" Value="2013-08-27"/>
      <ItemData ItemOID="IT.VS.VSDY" Value="-2"/>
    </ItemGroupData>
    <ItemGroupData ItemGroupOID="IG.VS" data:ItemGroupDataSeq="132">
      <ItemData ItemOID="IT.VS.STUDYID" Value="CDISCPILOT01"/>
      <ItemData ItemOID="IT.VS.DOMAIN" Value="VS"/>
      <ItemData ItemOID="IT.VS.USUBJID" Value="CDISC003"/>
      <ItemData ItemOID="IT.VS.VSSEQ" Value="34"/>
      <ItemData ItemOID="IT.VS.VSTESTCD" Value="PULSE"/>
      <ItemData ItemOID="IT.VS.VSTEST" Value="Pulse Rate"/>
      <ItemData ItemOID="IT.VS.VSPOS" Value="STANDING"/>
      <ItemData ItemOID="IT.VS.VSORRES" Value="71"/>
      <ItemData ItemOID="IT.VS.VSORRESU" Value="beats/min"/>
      <ItemData ItemOID="IT.VS.VSSTRESC" Value="71"/>
      <ItemData ItemOID="IT.VS.VSSTRESN" Value="71"/>
      <ItemData ItemOID="IT.VS.VSSTRESU" Value="beats/min"/>
      <ItemData ItemOID="IT.VS.VSREPNUM" Value="3"/>
      <ItemData ItemOID="IT.VS.VISITNUM" Value="2"/>
      <ItemData ItemOID="IT.VS.VISIT" Value="SCREENING 2"/>
      <ItemData ItemOID="IT.VS.EPOCH" Value="SCREENING"/>
      <ItemData ItemOID="IT.VS.VSDTC" Value="2013-08-27"/>
      <ItemData ItemOID="IT.VS.VSDY" Value="-2"/>
    </ItemGroupData>
    <ItemGroupData ItemGroupOID="IG.VS" data:ItemGroupDataSeq="133">
      <ItemData ItemOID="IT.VS.STUDYID" Value="CDISCPILOT01"/>
      <ItemData ItemOID="IT.VS.DOMAIN" Value="VS"/>
      <ItemData ItemOID="IT.VS.USUBJID" Value="CDISC003"/>
      <ItemData ItemOID="IT.VS.VSSEQ" Value="35"/>
      <ItemData ItemOID="IT.VS.VSTESTCD" Value="PULSE"/>
      <ItemData ItemOID="IT.VS.VSTEST" Value="Pulse Rate"/>
      <ItemData ItemOID="IT.VS.VSPOS" Value="SUPINE"/>
      <ItemData ItemOID="IT.VS.VSORRES" Value="54"/>
      <ItemData ItemOID="IT.VS.VSORRESU" Value="beats/min"/>
      <ItemData ItemOID="IT.VS.VSSTRESC" Value="54"/>
      <ItemData ItemOID="IT.VS.VSSTRESN" Value="54"/>
      <ItemData ItemOID="IT.VS.VSSTRESU" Value="beats/min"/>
      <ItemData ItemOID="IT.VS.VSREPNUM" Value="1"/>
      <ItemData ItemOID="IT.VS.VISITNUM" Value="3"/>
      <ItemData ItemOID="IT.VS.VISIT" Value="BASELINE"/>
      <ItemData ItemOID="IT.VS.EPOCH" Value="SCREENING"/>
      <ItemData ItemOID="IT.VS.VSDTC" Value="2013-08-29"/>
      <ItemData ItemOID="IT.VS.VSDY" Value="1"/>
    </ItemGroupData>
    <ItemGroupData ItemGroupOID="IG.VS" data:ItemGroupDataSeq="134">
      <ItemData ItemOID="IT.VS.STUDYID" Value="CDISCPILOT01"/>
      <ItemData ItemOID="IT.VS.DOMAIN" Value="VS"/>
      <ItemData ItemOID="IT.VS.USUBJID" Value="CDISC003"/>
      <ItemData ItemOID="IT.VS.VSSEQ" Value="36"/>
      <ItemData ItemOID="IT.VS.VSTESTCD" Value="PULSE"/>
      <ItemData ItemOID="IT.VS.VSTEST" Value="Pulse Rate"/>
      <ItemData ItemOID="IT.VS.VSPOS" Value="STANDING"/>
      <ItemData ItemOID="IT.VS.VSORRES" Value="62"/>
      <ItemData ItemOID="IT.VS.VSORRESU" Value="beats/min"/>
      <ItemData ItemOID="IT.VS.VSSTRESC" Value="62"/>
      <ItemData ItemOID="IT.VS.VSSTRESN" Value="62"/>
      <ItemData ItemOID="IT.VS.VSSTRESU" Value="beats/min"/>
      <ItemData ItemOID="IT.VS.VSREPNUM" Value="2"/>
      <ItemData ItemOID="IT.VS.VISITNUM" Value="3"/>
      <ItemData ItemOID="IT.VS.VISIT" Value="BASELINE"/>
      <ItemData ItemOID="IT.VS.EPOCH" Value="SCREENING"/>
      <ItemData ItemOID="IT.VS.VSDTC" Value="2013-08-29"/>
      <ItemData ItemOID="IT.VS.VSDY" Value="1"/>
    </ItemGroupData>
    <ItemGroupData ItemGroupOID="IG.VS" data:ItemGroupDataSeq="135">
      <ItemData ItemOID="IT.VS.STUDYID" Value="CDISCPILOT01"/>
      <ItemData ItemOID="IT.VS.DOMAIN" Value="VS"/>
      <ItemData ItemOID="IT.VS.USUBJID" Value="CDISC003"/>
      <ItemData ItemOID="IT.VS.VSSEQ" Value="37"/>
      <ItemData ItemOID="IT.VS.VSTESTCD" Value="PULSE"/>
      <ItemData ItemOID="IT.VS.VSTEST" Value="Pulse Rate"/>
      <ItemData ItemOID="IT.VS.VSPOS" Value="STANDING"/>
      <ItemData ItemOID="IT.VS.VSORRES" Value="61"/>
      <ItemData ItemOID="IT.VS.VSORRESU" Value="beats/min"/>
      <ItemData ItemOID="IT.VS.VSSTRESC" Value="61"/>
      <ItemData ItemOID="IT.VS.VSSTRESN" Value="61"/>
      <ItemData ItemOID="IT.VS.VSSTRESU" Value="beats/min"/>
      <ItemData ItemOID="IT.VS.VSLOBXFL" Value="Y"/>
      <ItemData ItemOID="IT.VS.VSREPNUM" Value="3"/>
      <ItemData ItemOID="IT.VS.VISITNUM" Value="3"/>
      <ItemData ItemOID="IT.VS.VISIT" Value="BASELINE"/>
      <ItemData ItemOID="IT.VS.EPOCH" Value="SCREENING"/>
      <ItemData ItemOID="IT.VS.VSDTC" Value="2013-08-29"/>
      <ItemData ItemOID="IT.VS.VSDY" Value="1"/>
    </ItemGroupData>
    <ItemGroupData ItemGroupOID="IG.VS" data:ItemGroupDataSeq="136">
      <ItemData ItemOID="IT.VS.STUDYID" Value="CDISCPILOT01"/>
      <ItemData ItemOID="IT.VS.DOMAIN" Value="VS"/>
      <ItemData ItemOID="IT.VS.USUBJID" Value="CDISC003"/>
      <ItemData ItemOID="IT.VS.VSSEQ" Value="38"/>
      <ItemData ItemOID="IT.VS.VSTESTCD" Value="PULSE"/>
      <ItemData ItemOID="IT.VS.VSTEST" Value="Pulse Rate"/>
      <ItemData ItemOID="IT.VS.VSPOS" Value="SUPINE"/>
      <ItemData ItemOID="IT.VS.VSORRES" Value="72"/>
      <ItemData ItemOID="IT.VS.VSORRESU" Value="beats/min"/>
      <ItemData ItemOID="IT.VS.VSSTRESC" Value="72"/>
      <ItemData ItemOID="IT.VS.VSSTRESN" Value="72"/>
      <ItemData ItemOID="IT.VS.VSSTRESU" Value="beats/min"/>
      <ItemData ItemOID="IT.VS.VSREPNUM" Value="1"/>
      <ItemData ItemOID="IT.VS.VISITNUM" Value="4"/>
      <ItemData ItemOID="IT.VS.VISIT" Value="WEEK 2"/>
      <ItemData ItemOID="IT.VS.EPOCH" Value="TREATMENT"/>
      <ItemData ItemOID="IT.VS.VSDTC" Value="2013-09-15"/>
      <ItemData ItemOID="IT.VS.VSDY" Value="18"/>
    </ItemGroupData>
    <ItemGroupData ItemGroupOID="IG.VS" data:ItemGroupDataSeq="137">
      <ItemData ItemOID="IT.VS.STUDYID" Value="CDISCPILOT01"/>
      <ItemData ItemOID="IT.VS.DOMAIN" Value="VS"/>
      <ItemData ItemOID="IT.VS.USUBJID" Value="CDISC003"/>
      <ItemData ItemOID="IT.VS.VSSEQ" Value="39"/>
      <ItemData ItemOID="IT.VS.VSTESTCD" Value="PULSE"/>
      <ItemData ItemOID="IT.VS.VSTEST" Value="Pulse Rate"/>
      <ItemData ItemOID="IT.VS.VSPOS" Value="STANDING"/>
      <ItemData ItemOID="IT.VS.VSORRES" Value="80"/>
      <ItemData ItemOID="IT.VS.VSORRESU" Value="beats/min"/>
      <ItemData ItemOID="IT.VS.VSSTRESC" Value="80"/>
      <ItemData ItemOID="IT.VS.VSSTRESN" Value="80"/>
      <ItemData ItemOID="IT.VS.VSSTRESU" Value="beats/min"/>
      <ItemData ItemOID="IT.VS.VSREPNUM" Value="2"/>
      <ItemData ItemOID="IT.VS.VISITNUM" Value="4"/>
      <ItemData ItemOID="IT.VS.VISIT" Value="WEEK 2"/>
      <ItemData ItemOID="IT.VS.EPOCH" Value="TREATMENT"/>
      <ItemData ItemOID="IT.VS.VSDTC" Value="2013-09-15"/>
      <ItemData ItemOID="IT.VS.VSDY" Value="18"/>
    </ItemGroupData>
    <ItemGroupData ItemGroupOID="IG.VS" data:ItemGroupDataSeq="138">
      <ItemData ItemOID="IT.VS.STUDYID" Value="CDISCPILOT01"/>
      <ItemData ItemOID="IT.VS.DOMAIN" Value="VS"/>
      <ItemData ItemOID="IT.VS.USUBJID" Value="CDISC003"/>
      <ItemData ItemOID="IT.VS.VSSEQ" Value="40"/>
      <ItemData ItemOID="IT.VS.VSTESTCD" Value="PULSE"/>
      <ItemData ItemOID="IT.VS.VSTEST" Value="Pulse Rate"/>
      <ItemData ItemOID="IT.VS.VSPOS" Value="STANDING"/>
      <ItemData ItemOID="IT.VS.VSORRES" Value="82"/>
      <ItemData ItemOID="IT.VS.VSORRESU" Value="beats/min"/>
      <ItemData ItemOID="IT.VS.VSSTRESC" Value="82"/>
      <ItemData ItemOID="IT.VS.VSSTRESN" Value="82"/>
      <ItemData ItemOID="IT.VS.VSSTRESU" Value="beats/min"/>
      <ItemData ItemOID="IT.VS.VSREPNUM" Value="3"/>
      <ItemData ItemOID="IT.VS.VISITNUM" Value="4"/>
      <ItemData ItemOID="IT.VS.VISIT" Value="WEEK 2"/>
      <ItemData ItemOID="IT.VS.EPOCH" Value="TREATMENT"/>
      <ItemData ItemOID="IT.VS.VSDTC" Value="2013-09-15"/>
      <ItemData ItemOID="IT.VS.VSDY" Value="18"/>
    </ItemGroupData>
    <ItemGroupData ItemGroupOID="IG.VS" data:ItemGroupDataSeq="139">
      <ItemData ItemOID="IT.VS.STUDYID" Value="CDISCPILOT01"/>
      <ItemData ItemOID="IT.VS.DOMAIN" Value="VS"/>
      <ItemData ItemOID="IT.VS.USUBJID" Value="CDISC003"/>
      <ItemData ItemOID="IT.VS.VSSEQ" Value="41"/>
      <ItemData ItemOID="IT.VS.VSTESTCD" Value="PULSE"/>
      <ItemData ItemOID="IT.VS.VSTEST" Value="Pulse Rate"/>
      <ItemData ItemOID="IT.VS.VSPOS" Value="SUPINE"/>
      <ItemData ItemOID="IT.VS.VSORRES" Value="52"/>
      <ItemData ItemOID="IT.VS.VSORRESU" Value="beats/min"/>
      <ItemData ItemOID="IT.VS.VSSTRESC" Value="52"/>
      <ItemData ItemOID="IT.VS.VSSTRESN" Value="52"/>
      <ItemData ItemOID="IT.VS.VSSTRESU" Value="beats/min"/>
      <ItemData ItemOID="IT.VS.VSREPNUM" Value="1"/>
      <ItemData ItemOID="IT.VS.VISITNUM" Value="5"/>
      <ItemData ItemOID="IT.VS.VISIT" Value="WEEK 4"/>
      <ItemData ItemOID="IT.VS.EPOCH" Value="TREATMENT"/>
      <ItemData ItemOID="IT.VS.VSDTC" Value="2013-09-24"/>
      <ItemData ItemOID="IT.VS.VSDY" Value="27"/>
    </ItemGroupData>
    <ItemGroupData ItemGroupOID="IG.VS" data:ItemGroupDataSeq="140">
      <ItemData ItemOID="IT.VS.STUDYID" Value="CDISCPILOT01"/>
      <ItemData ItemOID="IT.VS.DOMAIN" Value="VS"/>
      <ItemData ItemOID="IT.VS.USUBJID" Value="CDISC003"/>
      <ItemData ItemOID="IT.VS.VSSEQ" Value="42"/>
      <ItemData ItemOID="IT.VS.VSTESTCD" Value="PULSE"/>
      <ItemData ItemOID="IT.VS.VSTEST" Value="Pulse Rate"/>
      <ItemData ItemOID="IT.VS.VSPOS" Value="STANDING"/>
      <ItemData ItemOID="IT.VS.VSORRES" Value="62"/>
      <ItemData ItemOID="IT.VS.VSORRESU" Value="beats/min"/>
      <ItemData ItemOID="IT.VS.VSSTRESC" Value="62"/>
      <ItemData ItemOID="IT.VS.VSSTRESN" Value="62"/>
      <ItemData ItemOID="IT.VS.VSSTRESU" Value="beats/min"/>
      <ItemData ItemOID="IT.VS.VSREPNUM" Value="2"/>
      <ItemData ItemOID="IT.VS.VISITNUM" Value="5"/>
      <ItemData ItemOID="IT.VS.VISIT" Value="WEEK 4"/>
      <ItemData ItemOID="IT.VS.EPOCH" Value="TREATMENT"/>
      <ItemData ItemOID="IT.VS.VSDTC" Value="2013-09-24"/>
      <ItemData ItemOID="IT.VS.VSDY" Value="27"/>
    </ItemGroupData>
    <ItemGroupData ItemGroupOID="IG.VS" data:ItemGroupDataSeq="141">
      <ItemData ItemOID="IT.VS.STUDYID" Value="CDISCPILOT01"/>
      <ItemData ItemOID="IT.VS.DOMAIN" Value="VS"/>
      <ItemData ItemOID="IT.VS.USUBJID" Value="CDISC003"/>
      <ItemData ItemOID="IT.VS.VSSEQ" Value="43"/>
      <ItemData ItemOID="IT.VS.VSTESTCD" Value="PULSE"/>
      <ItemData ItemOID="IT.VS.VSTEST" Value="Pulse Rate"/>
      <ItemData ItemOID="IT.VS.VSPOS" Value="STANDING"/>
      <ItemData ItemOID="IT.VS.VSORRES" Value="66"/>
      <ItemData ItemOID="IT.VS.VSORRESU" Value="beats/min"/>
      <ItemData ItemOID="IT.VS.VSSTRESC" Value="66"/>
      <ItemData ItemOID="IT.VS.VSSTRESN" Value="66"/>
      <ItemData ItemOID="IT.VS.VSSTRESU" Value="beats/min"/>
      <ItemData ItemOID="IT.VS.VSREPNUM" Value="3"/>
      <ItemData ItemOID="IT.VS.VISITNUM" Value="5"/>
      <ItemData ItemOID="IT.VS.VISIT" Value="WEEK 4"/>
      <ItemData ItemOID="IT.VS.EPOCH" Value="TREATMENT"/>
      <ItemData ItemOID="IT.VS.VSDTC" Value="2013-09-24"/>
      <ItemData ItemOID="IT.VS.VSDY" Value="27"/>
    </ItemGroupData>
    <ItemGroupData ItemGroupOID="IG.VS" data:ItemGroupDataSeq="142">
      <ItemData ItemOID="IT.VS.STUDYID" Value="CDISCPILOT01"/>
      <ItemData ItemOID="IT.VS.DOMAIN" Value="VS"/>
      <ItemData ItemOID="IT.VS.USUBJID" Value="CDISC003"/>
      <ItemData ItemOID="IT.VS.VSSEQ" Value="44"/>
      <ItemData ItemOID="IT.VS.VSTESTCD" Value="PULSE"/>
      <ItemData ItemOID="IT.VS.VSTEST" Value="Pulse Rate"/>
      <ItemData ItemOID="IT.VS.VSPOS" Value="SUPINE"/>
      <ItemData ItemOID="IT.VS.VSORRES" Value="79"/>
      <ItemData ItemOID="IT.VS.VSORRESU" Value="beats/min"/>
      <ItemData ItemOID="IT.VS.VSSTRESC" Value="79"/>
      <ItemData ItemOID="IT.VS.VSSTRESN" Value="79"/>
      <ItemData ItemOID="IT.VS.VSSTRESU" Value="beats/min"/>
      <ItemData ItemOID="IT.VS.VSREPNUM" Value="1"/>
      <ItemData ItemOID="IT.VS.VISITNUM" Value="7"/>
      <ItemData ItemOID="IT.VS.VISIT" Value="WEEK 6"/>
      <ItemData ItemOID="IT.VS.EPOCH" Value="TREATMENT"/>
      <ItemData ItemOID="IT.VS.VSDTC" Value="2013-10-08"/>
      <ItemData ItemOID="IT.VS.VSDY" Value="41"/>
    </ItemGroupData>
    <ItemGroupData ItemGroupOID="IG.VS" data:ItemGroupDataSeq="143">
      <ItemData ItemOID="IT.VS.STUDYID" Value="CDISCPILOT01"/>
      <ItemData ItemOID="IT.VS.DOMAIN" Value="VS"/>
      <ItemData ItemOID="IT.VS.USUBJID" Value="CDISC003"/>
      <ItemData ItemOID="IT.VS.VSSEQ" Value="45"/>
      <ItemData ItemOID="IT.VS.VSTESTCD" Value="PULSE"/>
      <ItemData ItemOID="IT.VS.VSTEST" Value="Pulse Rate"/>
      <ItemData ItemOID="IT.VS.VSPOS" Value="STANDING"/>
      <ItemData ItemOID="IT.VS.VSORRES" Value="91"/>
      <ItemData ItemOID="IT.VS.VSORRESU" Value="beats/min"/>
      <ItemData ItemOID="IT.VS.VSSTRESC" Value="91"/>
      <ItemData ItemOID="IT.VS.VSSTRESN" Value="91"/>
      <ItemData ItemOID="IT.VS.VSSTRESU" Value="beats/min"/>
      <ItemData ItemOID="IT.VS.VSREPNUM" Value="2"/>
      <ItemData ItemOID="IT.VS.VISITNUM" Value="7"/>
      <ItemData ItemOID="IT.VS.VISIT" Value="WEEK 6"/>
      <ItemData ItemOID="IT.VS.EPOCH" Value="TREATMENT"/>
      <ItemData ItemOID="IT.VS.VSDTC" Value="2013-10-08"/>
      <ItemData ItemOID="IT.VS.VSDY" Value="41"/>
    </ItemGroupData>
    <ItemGroupData ItemGroupOID="IG.VS" data:ItemGroupDataSeq="144">
      <ItemData ItemOID="IT.VS.STUDYID" Value="CDISCPILOT01"/>
      <ItemData ItemOID="IT.VS.DOMAIN" Value="VS"/>
      <ItemData ItemOID="IT.VS.USUBJID" Value="CDISC003"/>
      <ItemData ItemOID="IT.VS.VSSEQ" Value="46"/>
      <ItemData ItemOID="IT.VS.VSTESTCD" Value="PULSE"/>
      <ItemData ItemOID="IT.VS.VSTEST" Value="Pulse Rate"/>
      <ItemData ItemOID="IT.VS.VSPOS" Value="STANDING"/>
      <ItemData ItemOID="IT.VS.VSORRES" Value="86"/>
      <ItemData ItemOID="IT.VS.VSORRESU" Value="beats/min"/>
      <ItemData ItemOID="IT.VS.VSSTRESC" Value="86"/>
      <ItemData ItemOID="IT.VS.VSSTRESN" Value="86"/>
      <ItemData ItemOID="IT.VS.VSSTRESU" Value="beats/min"/>
      <ItemData ItemOID="IT.VS.VSREPNUM" Value="3"/>
      <ItemData ItemOID="IT.VS.VISITNUM" Value="7"/>
      <ItemData ItemOID="IT.VS.VISIT" Value="WEEK 6"/>
      <ItemData ItemOID="IT.VS.EPOCH" Value="TREATMENT"/>
      <ItemData ItemOID="IT.VS.VSDTC" Value="2013-10-08"/>
      <ItemData ItemOID="IT.VS.VSDY" Value="41"/>
    </ItemGroupData>
    <ItemGroupData ItemGroupOID="IG.VS" data:ItemGroupDataSeq="145">
      <ItemData ItemOID="IT.VS.STUDYID" Value="CDISCPILOT01"/>
      <ItemData ItemOID="IT.VS.DOMAIN" Value="VS"/>
      <ItemData ItemOID="IT.VS.USUBJID" Value="CDISC003"/>
      <ItemData ItemOID="IT.VS.VSSEQ" Value="47"/>
      <ItemData ItemOID="IT.VS.VSTESTCD" Value="PULSE"/>
      <ItemData ItemOID="IT.VS.VSTEST" Value="Pulse Rate"/>
      <ItemData ItemOID="IT.VS.VSPOS" Value="SUPINE"/>
      <ItemData ItemOID="IT.VS.VSORRES" Value="62"/>
      <ItemData ItemOID="IT.VS.VSORRESU" Value="beats/min"/>
      <ItemData ItemOID="IT.VS.VSSTRESC" Value="62"/>
      <ItemData ItemOID="IT.VS.VSSTRESN" Value="62"/>
      <ItemData ItemOID="IT.VS.VSSTRESU" Value="beats/min"/>
      <ItemData ItemOID="IT.VS.VSREPNUM" Value="1"/>
      <ItemData ItemOID="IT.VS.VISITNUM" Value="8"/>
      <ItemData ItemOID="IT.VS.VISIT" Value="WEEK 8"/>
      <ItemData ItemOID="IT.VS.EPOCH" Value="TREATMENT"/>
      <ItemData ItemOID="IT.VS.VSDTC" Value="2013-10-22"/>
      <ItemData ItemOID="IT.VS.VSDY" Value="55"/>
    </ItemGroupData>
    <ItemGroupData ItemGroupOID="IG.VS" data:ItemGroupDataSeq="146">
      <ItemData ItemOID="IT.VS.STUDYID" Value="CDISCPILOT01"/>
      <ItemData ItemOID="IT.VS.DOMAIN" Value="VS"/>
      <ItemData ItemOID="IT.VS.USUBJID" Value="CDISC003"/>
      <ItemData ItemOID="IT.VS.VSSEQ" Value="48"/>
      <ItemData ItemOID="IT.VS.VSTESTCD" Value="PULSE"/>
      <ItemData ItemOID="IT.VS.VSTEST" Value="Pulse Rate"/>
      <ItemData ItemOID="IT.VS.VSPOS" Value="STANDING"/>
      <ItemData ItemOID="IT.VS.VSORRES" Value="76"/>
      <ItemData ItemOID="IT.VS.VSORRESU" Value="beats/min"/>
      <ItemData ItemOID="IT.VS.VSSTRESC" Value="76"/>
      <ItemData ItemOID="IT.VS.VSSTRESN" Value="76"/>
      <ItemData ItemOID="IT.VS.VSSTRESU" Value="beats/min"/>
      <ItemData ItemOID="IT.VS.VSREPNUM" Value="2"/>
      <ItemData ItemOID="IT.VS.VISITNUM" Value="8"/>
      <ItemData ItemOID="IT.VS.VISIT" Value="WEEK 8"/>
      <ItemData ItemOID="IT.VS.EPOCH" Value="TREATMENT"/>
      <ItemData ItemOID="IT.VS.VSDTC" Value="2013-10-22"/>
      <ItemData ItemOID="IT.VS.VSDY" Value="55"/>
    </ItemGroupData>
    <ItemGroupData ItemGroupOID="IG.VS" data:ItemGroupDataSeq="147">
      <ItemData ItemOID="IT.VS.STUDYID" Value="CDISCPILOT01"/>
      <ItemData ItemOID="IT.VS.DOMAIN" Value="VS"/>
      <ItemData ItemOID="IT.VS.USUBJID" Value="CDISC003"/>
      <ItemData ItemOID="IT.VS.VSSEQ" Value="49"/>
      <ItemData ItemOID="IT.VS.VSTESTCD" Value="PULSE"/>
      <ItemData ItemOID="IT.VS.VSTEST" Value="Pulse Rate"/>
      <ItemData ItemOID="IT.VS.VSPOS" Value="STANDING"/>
      <ItemData ItemOID="IT.VS.VSORRES" Value="77"/>
      <ItemData ItemOID="IT.VS.VSORRESU" Value="beats/min"/>
      <ItemData ItemOID="IT.VS.VSSTRESC" Value="77"/>
      <ItemData ItemOID="IT.VS.VSSTRESN" Value="77"/>
      <ItemData ItemOID="IT.VS.VSSTRESU" Value="beats/min"/>
      <ItemData ItemOID="IT.VS.VSREPNUM" Value="3"/>
      <ItemData ItemOID="IT.VS.VISITNUM" Value="8"/>
      <ItemData ItemOID="IT.VS.VISIT" Value="WEEK 8"/>
      <ItemData ItemOID="IT.VS.EPOCH" Value="TREATMENT"/>
      <ItemData ItemOID="IT.VS.VSDTC" Value="2013-10-22"/>
      <ItemData ItemOID="IT.VS.VSDY" Value="55"/>
    </ItemGroupData>
    <ItemGroupData ItemGroupOID="IG.VS" data:ItemGroupDataSeq="148">
      <ItemData ItemOID="IT.VS.STUDYID" Value="CDISCPILOT01"/>
      <ItemData ItemOID="IT.VS.DOMAIN" Value="VS"/>
      <ItemData ItemOID="IT.VS.USUBJID" Value="CDISC003"/>
      <ItemData ItemOID="IT.VS.VSSEQ" Value="50"/>
      <ItemData ItemOID="IT.VS.VSTESTCD" Value="PULSE"/>
      <ItemData ItemOID="IT.VS.VSTEST" Value="Pulse Rate"/>
      <ItemData ItemOID="IT.VS.VSPOS" Value="SUPINE"/>
      <ItemData ItemOID="IT.VS.VSORRES" Value="53"/>
      <ItemData ItemOID="IT.VS.VSORRESU" Value="beats/min"/>
      <ItemData ItemOID="IT.VS.VSSTRESC" Value="53"/>
      <ItemData ItemOID="IT.VS.VSSTRESN" Value="53"/>
      <ItemData ItemOID="IT.VS.VSSTRESU" Value="beats/min"/>
      <ItemData ItemOID="IT.VS.VSREPNUM" Value="1"/>
      <ItemData ItemOID="IT.VS.VISITNUM" Value="9"/>
      <ItemData ItemOID="IT.VS.VISIT" Value="WEEK 12"/>
      <ItemData ItemOID="IT.VS.EPOCH" Value="TREATMENT"/>
      <ItemData ItemOID="IT.VS.VSDTC" Value="2013-11-05"/>
      <ItemData ItemOID="IT.VS.VSDY" Value="69"/>
    </ItemGroupData>
    <ItemGroupData ItemGroupOID="IG.VS" data:ItemGroupDataSeq="149">
      <ItemData ItemOID="IT.VS.STUDYID" Value="CDISCPILOT01"/>
      <ItemData ItemOID="IT.VS.DOMAIN" Value="VS"/>
      <ItemData ItemOID="IT.VS.USUBJID" Value="CDISC003"/>
      <ItemData ItemOID="IT.VS.VSSEQ" Value="51"/>
      <ItemData ItemOID="IT.VS.VSTESTCD" Value="PULSE"/>
      <ItemData ItemOID="IT.VS.VSTEST" Value="Pulse Rate"/>
      <ItemData ItemOID="IT.VS.VSPOS" Value="STANDING"/>
      <ItemData ItemOID="IT.VS.VSORRES" Value="55"/>
      <ItemData ItemOID="IT.VS.VSORRESU" Value="beats/min"/>
      <ItemData ItemOID="IT.VS.VSSTRESC" Value="55"/>
      <ItemData ItemOID="IT.VS.VSSTRESN" Value="55"/>
      <ItemData ItemOID="IT.VS.VSSTRESU" Value="beats/min"/>
      <ItemData ItemOID="IT.VS.VSREPNUM" Value="2"/>
      <ItemData ItemOID="IT.VS.VISITNUM" Value="9"/>
      <ItemData ItemOID="IT.VS.VISIT" Value="WEEK 12"/>
      <ItemData ItemOID="IT.VS.EPOCH" Value="TREATMENT"/>
      <ItemData ItemOID="IT.VS.VSDTC" Value="2013-11-05"/>
      <ItemData ItemOID="IT.VS.VSDY" Value="69"/>
    </ItemGroupData>
    <ItemGroupData ItemGroupOID="IG.VS" data:ItemGroupDataSeq="150">
      <ItemData ItemOID="IT.VS.STUDYID" Value="CDISCPILOT01"/>
      <ItemData ItemOID="IT.VS.DOMAIN" Value="VS"/>
      <ItemData ItemOID="IT.VS.USUBJID" Value="CDISC003"/>
      <ItemData ItemOID="IT.VS.VSSEQ" Value="52"/>
      <ItemData ItemOID="IT.VS.VSTESTCD" Value="PULSE"/>
      <ItemData ItemOID="IT.VS.VSTEST" Value="Pulse Rate"/>
      <ItemData ItemOID="IT.VS.VSPOS" Value="STANDING"/>
      <ItemData ItemOID="IT.VS.VSORRES" Value="56"/>
      <ItemData ItemOID="IT.VS.VSORRESU" Value="beats/min"/>
      <ItemData ItemOID="IT.VS.VSSTRESC" Value="56"/>
      <ItemData ItemOID="IT.VS.VSSTRESN" Value="56"/>
      <ItemData ItemOID="IT.VS.VSSTRESU" Value="beats/min"/>
      <ItemData ItemOID="IT.VS.VSREPNUM" Value="3"/>
      <ItemData ItemOID="IT.VS.VISITNUM" Value="9"/>
      <ItemData ItemOID="IT.VS.VISIT" Value="WEEK 12"/>
      <ItemData ItemOID="IT.VS.EPOCH" Value="TREATMENT"/>
      <ItemData ItemOID="IT.VS.VSDTC" Value="2013-11-05"/>
      <ItemData ItemOID="IT.VS.VSDY" Value="69"/>
    </ItemGroupData>
    <ItemGroupData ItemGroupOID="IG.VS" data:ItemGroupDataSeq="151">
      <ItemData ItemOID="IT.VS.STUDYID" Value="CDISCPILOT01"/>
      <ItemData ItemOID="IT.VS.DOMAIN" Value="VS"/>
      <ItemData ItemOID="IT.VS.USUBJID" Value="CDISC003"/>
      <ItemData ItemOID="IT.VS.VSSEQ" Value="53"/>
      <ItemData ItemOID="IT.VS.VSTESTCD" Value="PULSE"/>
      <ItemData ItemOID="IT.VS.VSTEST" Value="Pulse Rate"/>
      <ItemData ItemOID="IT.VS.VSPOS" Value="SUPINE"/>
      <ItemData ItemOID="IT.VS.VSORRES" Value="50"/>
      <ItemData ItemOID="IT.VS.VSORRESU" Value="beats/min"/>
      <ItemData ItemOID="IT.VS.VSSTRESC" Value="50"/>
      <ItemData ItemOID="IT.VS.VSSTRESN" Value="50"/>
      <ItemData ItemOID="IT.VS.VSSTRESU" Value="beats/min"/>
      <ItemData ItemOID="IT.VS.VSREPNUM" Value="1"/>
      <ItemData ItemOID="IT.VS.VISITNUM" Value="201"/>
      <ItemData ItemOID="IT.VS.VISIT" Value="EARLY DISCONTINUATION RETRIEVAL"/>
      <ItemData ItemOID="IT.VS.EPOCH" Value="TREATMENT"/>
      <ItemData ItemOID="IT.VS.VSDTC" Value="2014-02-13"/>
      <ItemData ItemOID="IT.VS.VSDY" Value="169"/>
    </ItemGroupData>
    <ItemGroupData ItemGroupOID="IG.VS" data:ItemGroupDataSeq="152">
      <ItemData ItemOID="IT.VS.STUDYID" Value="CDISCPILOT01"/>
      <ItemData ItemOID="IT.VS.DOMAIN" Value="VS"/>
      <ItemData ItemOID="IT.VS.USUBJID" Value="CDISC003"/>
      <ItemData ItemOID="IT.VS.VSSEQ" Value="54"/>
      <ItemData ItemOID="IT.VS.VSTESTCD" Value="PULSE"/>
      <ItemData ItemOID="IT.VS.VSTEST" Value="Pulse Rate"/>
      <ItemData ItemOID="IT.VS.VSPOS" Value="STANDING"/>
      <ItemData ItemOID="IT.VS.VSORRES" Value="57"/>
      <ItemData ItemOID="IT.VS.VSORRESU" Value="beats/min"/>
      <ItemData ItemOID="IT.VS.VSSTRESC" Value="57"/>
      <ItemData ItemOID="IT.VS.VSSTRESN" Value="57"/>
      <ItemData ItemOID="IT.VS.VSSTRESU" Value="beats/min"/>
      <ItemData ItemOID="IT.VS.VSREPNUM" Value="2"/>
      <ItemData ItemOID="IT.VS.VISITNUM" Value="201"/>
      <ItemData ItemOID="IT.VS.VISIT" Value="EARLY DISCONTINUATION RETRIEVAL"/>
      <ItemData ItemOID="IT.VS.EPOCH" Value="TREATMENT"/>
      <ItemData ItemOID="IT.VS.VSDTC" Value="2014-02-13"/>
      <ItemData ItemOID="IT.VS.VSDY" Value="169"/>
    </ItemGroupData>
    <ItemGroupData ItemGroupOID="IG.VS" data:ItemGroupDataSeq="153">
      <ItemData ItemOID="IT.VS.STUDYID" Value="CDISCPILOT01"/>
      <ItemData ItemOID="IT.VS.DOMAIN" Value="VS"/>
      <ItemData ItemOID="IT.VS.USUBJID" Value="CDISC003"/>
      <ItemData ItemOID="IT.VS.VSSEQ" Value="55"/>
      <ItemData ItemOID="IT.VS.VSTESTCD" Value="PULSE"/>
      <ItemData ItemOID="IT.VS.VSTEST" Value="Pulse Rate"/>
      <ItemData ItemOID="IT.VS.VSPOS" Value="STANDING"/>
      <ItemData ItemOID="IT.VS.VSORRES" Value="60"/>
      <ItemData ItemOID="IT.VS.VSORRESU" Value="beats/min"/>
      <ItemData ItemOID="IT.VS.VSSTRESC" Value="60"/>
      <ItemData ItemOID="IT.VS.VSSTRESN" Value="60"/>
      <ItemData ItemOID="IT.VS.VSSTRESU" Value="beats/min"/>
      <ItemData ItemOID="IT.VS.VSREPNUM" Value="3"/>
      <ItemData ItemOID="IT.VS.VISITNUM" Value="201"/>
      <ItemData ItemOID="IT.VS.VISIT" Value="EARLY DISCONTINUATION RETRIEVAL"/>
      <ItemData ItemOID="IT.VS.EPOCH" Value="TREATMENT"/>
      <ItemData ItemOID="IT.VS.VSDTC" Value="2014-02-13"/>
      <ItemData ItemOID="IT.VS.VSDY" Value="169"/>
    </ItemGroupData>
    <ItemGroupData ItemGroupOID="IG.VS" data:ItemGroupDataSeq="154">
      <ItemData ItemOID="IT.VS.STUDYID" Value="CDISCPILOT01"/>
      <ItemData ItemOID="IT.VS.DOMAIN" Value="VS"/>
      <ItemData ItemOID="IT.VS.USUBJID" Value="CDISC003"/>
      <ItemData ItemOID="IT.VS.VSSEQ" Value="56"/>
      <ItemData ItemOID="IT.VS.VSTESTCD" Value="SYSBP"/>
      <ItemData ItemOID="IT.VS.VSTEST" Value="Systolic Blood Pressure"/>
      <ItemData ItemOID="IT.VS.VSPOS" Value="SUPINE"/>
      <ItemData ItemOID="IT.VS.VSORRES" Value="115"/>
      <ItemData ItemOID="IT.VS.VSORRESU" Value="mmHg"/>
      <ItemData ItemOID="IT.VS.VSSTRESC" Value="115"/>
      <ItemData ItemOID="IT.VS.VSSTRESN" Value="115"/>
      <ItemData ItemOID="IT.VS.VSSTRESU" Value="mmHg"/>
      <ItemData ItemOID="IT.VS.VSREPNUM" Value="1"/>
      <ItemData ItemOID="IT.VS.VISITNUM" Value="1"/>
      <ItemData ItemOID="IT.VS.VISIT" Value="SCREENING 1"/>
      <ItemData ItemOID="IT.VS.EPOCH" Value="SCREENING"/>
      <ItemData ItemOID="IT.VS.VSDTC" Value="2013-08-20"/>
      <ItemData ItemOID="IT.VS.VSDY" Value="-9"/>
    </ItemGroupData>
    <ItemGroupData ItemGroupOID="IG.VS" data:ItemGroupDataSeq="155">
      <ItemData ItemOID="IT.VS.STUDYID" Value="CDISCPILOT01"/>
      <ItemData ItemOID="IT.VS.DOMAIN" Value="VS"/>
      <ItemData ItemOID="IT.VS.USUBJID" Value="CDISC003"/>
      <ItemData ItemOID="IT.VS.VSSEQ" Value="57"/>
      <ItemData ItemOID="IT.VS.VSTESTCD" Value="SYSBP"/>
      <ItemData ItemOID="IT.VS.VSTEST" Value="Systolic Blood Pressure"/>
      <ItemData ItemOID="IT.VS.VSPOS" Value="STANDING"/>
      <ItemData ItemOID="IT.VS.VSORRES" Value="122"/>
      <ItemData ItemOID="IT.VS.VSORRESU" Value="mmHg"/>
      <ItemData ItemOID="IT.VS.VSSTRESC" Value="122"/>
      <ItemData ItemOID="IT.VS.VSSTRESN" Value="122"/>
      <ItemData ItemOID="IT.VS.VSSTRESU" Value="mmHg"/>
      <ItemData ItemOID="IT.VS.VSREPNUM" Value="2"/>
      <ItemData ItemOID="IT.VS.VISITNUM" Value="1"/>
      <ItemData ItemOID="IT.VS.VISIT" Value="SCREENING 1"/>
      <ItemData ItemOID="IT.VS.EPOCH" Value="SCREENING"/>
      <ItemData ItemOID="IT.VS.VSDTC" Value="2013-08-20"/>
      <ItemData ItemOID="IT.VS.VSDY" Value="-9"/>
    </ItemGroupData>
    <ItemGroupData ItemGroupOID="IG.VS" data:ItemGroupDataSeq="156">
      <ItemData ItemOID="IT.VS.STUDYID" Value="CDISCPILOT01"/>
      <ItemData ItemOID="IT.VS.DOMAIN" Value="VS"/>
      <ItemData ItemOID="IT.VS.USUBJID" Value="CDISC003"/>
      <ItemData ItemOID="IT.VS.VSSEQ" Value="58"/>
      <ItemData ItemOID="IT.VS.VSTESTCD" Value="SYSBP"/>
      <ItemData ItemOID="IT.VS.VSTEST" Value="Systolic Blood Pressure"/>
      <ItemData ItemOID="IT.VS.VSPOS" Value="STANDING"/>
      <ItemData ItemOID="IT.VS.VSORRES" Value="123"/>
      <ItemData ItemOID="IT.VS.VSORRESU" Value="mmHg"/>
      <ItemData ItemOID="IT.VS.VSSTRESC" Value="123"/>
      <ItemData ItemOID="IT.VS.VSSTRESN" Value="123"/>
      <ItemData ItemOID="IT.VS.VSSTRESU" Value="mmHg"/>
      <ItemData ItemOID="IT.VS.VSREPNUM" Value="3"/>
      <ItemData ItemOID="IT.VS.VISITNUM" Value="1"/>
      <ItemData ItemOID="IT.VS.VISIT" Value="SCREENING 1"/>
      <ItemData ItemOID="IT.VS.EPOCH" Value="SCREENING"/>
      <ItemData ItemOID="IT.VS.VSDTC" Value="2013-08-20"/>
      <ItemData ItemOID="IT.VS.VSDY" Value="-9"/>
    </ItemGroupData>
    <ItemGroupData ItemGroupOID="IG.VS" data:ItemGroupDataSeq="157">
      <ItemData ItemOID="IT.VS.STUDYID" Value="CDISCPILOT01"/>
      <ItemData ItemOID="IT.VS.DOMAIN" Value="VS"/>
      <ItemData ItemOID="IT.VS.USUBJID" Value="CDISC003"/>
      <ItemData ItemOID="IT.VS.VSSEQ" Value="59"/>
      <ItemData ItemOID="IT.VS.VSTESTCD" Value="SYSBP"/>
      <ItemData ItemOID="IT.VS.VSTEST" Value="Systolic Blood Pressure"/>
      <ItemData ItemOID="IT.VS.VSPOS" Value="SUPINE"/>
      <ItemData ItemOID="IT.VS.VSORRES" Value="121"/>
      <ItemData ItemOID="IT.VS.VSORRESU" Value="mmHg"/>
      <ItemData ItemOID="IT.VS.VSSTRESC" Value="121"/>
      <ItemData ItemOID="IT.VS.VSSTRESN" Value="121"/>
      <ItemData ItemOID="IT.VS.VSSTRESU" Value="mmHg"/>
      <ItemData ItemOID="IT.VS.VSREPNUM" Value="1"/>
      <ItemData ItemOID="IT.VS.VISITNUM" Value="2"/>
      <ItemData ItemOID="IT.VS.VISIT" Value="SCREENING 2"/>
      <ItemData ItemOID="IT.VS.EPOCH" Value="SCREENING"/>
      <ItemData ItemOID="IT.VS.VSDTC" Value="2013-08-27"/>
      <ItemData ItemOID="IT.VS.VSDY" Value="-2"/>
    </ItemGroupData>
    <ItemGroupData ItemGroupOID="IG.VS" data:ItemGroupDataSeq="158">
      <ItemData ItemOID="IT.VS.STUDYID" Value="CDISCPILOT01"/>
      <ItemData ItemOID="IT.VS.DOMAIN" Value="VS"/>
      <ItemData ItemOID="IT.VS.USUBJID" Value="CDISC003"/>
      <ItemData ItemOID="IT.VS.VSSEQ" Value="60"/>
      <ItemData ItemOID="IT.VS.VSTESTCD" Value="SYSBP"/>
      <ItemData ItemOID="IT.VS.VSTEST" Value="Systolic Blood Pressure"/>
      <ItemData ItemOID="IT.VS.VSPOS" Value="STANDING"/>
      <ItemData ItemOID="IT.VS.VSORRES" Value="106"/>
      <ItemData ItemOID="IT.VS.VSORRESU" Value="mmHg"/>
      <ItemData ItemOID="IT.VS.VSSTRESC" Value="106"/>
      <ItemData ItemOID="IT.VS.VSSTRESN" Value="106"/>
      <ItemData ItemOID="IT.VS.VSSTRESU" Value="mmHg"/>
      <ItemData ItemOID="IT.VS.VSREPNUM" Value="2"/>
      <ItemData ItemOID="IT.VS.VISITNUM" Value="2"/>
      <ItemData ItemOID="IT.VS.VISIT" Value="SCREENING 2"/>
      <ItemData ItemOID="IT.VS.EPOCH" Value="SCREENING"/>
      <ItemData ItemOID="IT.VS.VSDTC" Value="2013-08-27"/>
      <ItemData ItemOID="IT.VS.VSDY" Value="-2"/>
    </ItemGroupData>
    <ItemGroupData ItemGroupOID="IG.VS" data:ItemGroupDataSeq="159">
      <ItemData ItemOID="IT.VS.STUDYID" Value="CDISCPILOT01"/>
      <ItemData ItemOID="IT.VS.DOMAIN" Value="VS"/>
      <ItemData ItemOID="IT.VS.USUBJID" Value="CDISC003"/>
      <ItemData ItemOID="IT.VS.VSSEQ" Value="61"/>
      <ItemData ItemOID="IT.VS.VSTESTCD" Value="SYSBP"/>
      <ItemData ItemOID="IT.VS.VSTEST" Value="Systolic Blood Pressure"/>
      <ItemData ItemOID="IT.VS.VSPOS" Value="STANDING"/>
      <ItemData ItemOID="IT.VS.VSORRES" Value="115"/>
      <ItemData ItemOID="IT.VS.VSORRESU" Value="mmHg"/>
      <ItemData ItemOID="IT.VS.VSSTRESC" Value="115"/>
      <ItemData ItemOID="IT.VS.VSSTRESN" Value="115"/>
      <ItemData ItemOID="IT.VS.VSSTRESU" Value="mmHg"/>
      <ItemData ItemOID="IT.VS.VSREPNUM" Value="3"/>
      <ItemData ItemOID="IT.VS.VISITNUM" Value="2"/>
      <ItemData ItemOID="IT.VS.VISIT" Value="SCREENING 2"/>
      <ItemData ItemOID="IT.VS.EPOCH" Value="SCREENING"/>
      <ItemData ItemOID="IT.VS.VSDTC" Value="2013-08-27"/>
      <ItemData ItemOID="IT.VS.VSDY" Value="-2"/>
    </ItemGroupData>
    <ItemGroupData ItemGroupOID="IG.VS" data:ItemGroupDataSeq="160">
      <ItemData ItemOID="IT.VS.STUDYID" Value="CDISCPILOT01"/>
      <ItemData ItemOID="IT.VS.DOMAIN" Value="VS"/>
      <ItemData ItemOID="IT.VS.USUBJID" Value="CDISC003"/>
      <ItemData ItemOID="IT.VS.VSSEQ" Value="62"/>
      <ItemData ItemOID="IT.VS.VSTESTCD" Value="SYSBP"/>
      <ItemData ItemOID="IT.VS.VSTEST" Value="Systolic Blood Pressure"/>
      <ItemData ItemOID="IT.VS.VSPOS" Value="SUPINE"/>
      <ItemData ItemOID="IT.VS.VSORRES" Value="131"/>
      <ItemData ItemOID="IT.VS.VSORRESU" Value="mmHg"/>
      <ItemData ItemOID="IT.VS.VSSTRESC" Value="131"/>
      <ItemData ItemOID="IT.VS.VSSTRESN" Value="131"/>
      <ItemData ItemOID="IT.VS.VSSTRESU" Value="mmHg"/>
      <ItemData ItemOID="IT.VS.VSREPNUM" Value="1"/>
      <ItemData ItemOID="IT.VS.VISITNUM" Value="3"/>
      <ItemData ItemOID="IT.VS.VISIT" Value="BASELINE"/>
      <ItemData ItemOID="IT.VS.EPOCH" Value="SCREENING"/>
      <ItemData ItemOID="IT.VS.VSDTC" Value="2013-08-29"/>
      <ItemData ItemOID="IT.VS.VSDY" Value="1"/>
    </ItemGroupData>
    <ItemGroupData ItemGroupOID="IG.VS" data:ItemGroupDataSeq="161">
      <ItemData ItemOID="IT.VS.STUDYID" Value="CDISCPILOT01"/>
      <ItemData ItemOID="IT.VS.DOMAIN" Value="VS"/>
      <ItemData ItemOID="IT.VS.USUBJID" Value="CDISC003"/>
      <ItemData ItemOID="IT.VS.VSSEQ" Value="63"/>
      <ItemData ItemOID="IT.VS.VSTESTCD" Value="SYSBP"/>
      <ItemData ItemOID="IT.VS.VSTEST" Value="Systolic Blood Pressure"/>
      <ItemData ItemOID="IT.VS.VSPOS" Value="STANDING"/>
      <ItemData ItemOID="IT.VS.VSORRES" Value="137"/>
      <ItemData ItemOID="IT.VS.VSORRESU" Value="mmHg"/>
      <ItemData ItemOID="IT.VS.VSSTRESC" Value="137"/>
      <ItemData ItemOID="IT.VS.VSSTRESN" Value="137"/>
      <ItemData ItemOID="IT.VS.VSSTRESU" Value="mmHg"/>
      <ItemData ItemOID="IT.VS.VSREPNUM" Value="2"/>
      <ItemData ItemOID="IT.VS.VISITNUM" Value="3"/>
      <ItemData ItemOID="IT.VS.VISIT" Value="BASELINE"/>
      <ItemData ItemOID="IT.VS.EPOCH" Value="SCREENING"/>
      <ItemData ItemOID="IT.VS.VSDTC" Value="2013-08-29"/>
      <ItemData ItemOID="IT.VS.VSDY" Value="1"/>
    </ItemGroupData>
    <ItemGroupData ItemGroupOID="IG.VS" data:ItemGroupDataSeq="162">
      <ItemData ItemOID="IT.VS.STUDYID" Value="CDISCPILOT01"/>
      <ItemData ItemOID="IT.VS.DOMAIN" Value="VS"/>
      <ItemData ItemOID="IT.VS.USUBJID" Value="CDISC003"/>
      <ItemData ItemOID="IT.VS.VSSEQ" Value="64"/>
      <ItemData ItemOID="IT.VS.VSTESTCD" Value="SYSBP"/>
      <ItemData ItemOID="IT.VS.VSTEST" Value="Systolic Blood Pressure"/>
      <ItemData ItemOID="IT.VS.VSPOS" Value="STANDING"/>
      <ItemData ItemOID="IT.VS.VSORRES" Value="136"/>
      <ItemData ItemOID="IT.VS.VSORRESU" Value="mmHg"/>
      <ItemData ItemOID="IT.VS.VSSTRESC" Value="136"/>
      <ItemData ItemOID="IT.VS.VSSTRESN" Value="136"/>
      <ItemData ItemOID="IT.VS.VSSTRESU" Value="mmHg"/>
      <ItemData ItemOID="IT.VS.VSLOBXFL" Value="Y"/>
      <ItemData ItemOID="IT.VS.VSREPNUM" Value="3"/>
      <ItemData ItemOID="IT.VS.VISITNUM" Value="3"/>
      <ItemData ItemOID="IT.VS.VISIT" Value="BASELINE"/>
      <ItemData ItemOID="IT.VS.EPOCH" Value="SCREENING"/>
      <ItemData ItemOID="IT.VS.VSDTC" Value="2013-08-29"/>
      <ItemData ItemOID="IT.VS.VSDY" Value="1"/>
    </ItemGroupData>
    <ItemGroupData ItemGroupOID="IG.VS" data:ItemGroupDataSeq="163">
      <ItemData ItemOID="IT.VS.STUDYID" Value="CDISCPILOT01"/>
      <ItemData ItemOID="IT.VS.DOMAIN" Value="VS"/>
      <ItemData ItemOID="IT.VS.USUBJID" Value="CDISC003"/>
      <ItemData ItemOID="IT.VS.VSSEQ" Value="65"/>
      <ItemData ItemOID="IT.VS.VSTESTCD" Value="SYSBP"/>
      <ItemData ItemOID="IT.VS.VSTEST" Value="Systolic Blood Pressure"/>
      <ItemData ItemOID="IT.VS.VSPOS" Value="SUPINE"/>
      <ItemData ItemOID="IT.VS.VSORRES" Value="114"/>
      <ItemData ItemOID="IT.VS.VSORRESU" Value="mmHg"/>
      <ItemData ItemOID="IT.VS.VSSTRESC" Value="114"/>
      <ItemData ItemOID="IT.VS.VSSTRESN" Value="114"/>
      <ItemData ItemOID="IT.VS.VSSTRESU" Value="mmHg"/>
      <ItemData ItemOID="IT.VS.VSREPNUM" Value="1"/>
      <ItemData ItemOID="IT.VS.VISITNUM" Value="4"/>
      <ItemData ItemOID="IT.VS.VISIT" Value="WEEK 2"/>
      <ItemData ItemOID="IT.VS.EPOCH" Value="TREATMENT"/>
      <ItemData ItemOID="IT.VS.VSDTC" Value="2013-09-15"/>
      <ItemData ItemOID="IT.VS.VSDY" Value="18"/>
    </ItemGroupData>
    <ItemGroupData ItemGroupOID="IG.VS" data:ItemGroupDataSeq="164">
      <ItemData ItemOID="IT.VS.STUDYID" Value="CDISCPILOT01"/>
      <ItemData ItemOID="IT.VS.DOMAIN" Value="VS"/>
      <ItemData ItemOID="IT.VS.USUBJID" Value="CDISC003"/>
      <ItemData ItemOID="IT.VS.VSSEQ" Value="66"/>
      <ItemData ItemOID="IT.VS.VSTESTCD" Value="SYSBP"/>
      <ItemData ItemOID="IT.VS.VSTEST" Value="Systolic Blood Pressure"/>
      <ItemData ItemOID="IT.VS.VSPOS" Value="STANDING"/>
      <ItemData ItemOID="IT.VS.VSORRES" Value="114"/>
      <ItemData ItemOID="IT.VS.VSORRESU" Value="mmHg"/>
      <ItemData ItemOID="IT.VS.VSSTRESC" Value="114"/>
      <ItemData ItemOID="IT.VS.VSSTRESN" Value="114"/>
      <ItemData ItemOID="IT.VS.VSSTRESU" Value="mmHg"/>
      <ItemData ItemOID="IT.VS.VSREPNUM" Value="2"/>
      <ItemData ItemOID="IT.VS.VISITNUM" Value="4"/>
      <ItemData ItemOID="IT.VS.VISIT" Value="WEEK 2"/>
      <ItemData ItemOID="IT.VS.EPOCH" Value="TREATMENT"/>
      <ItemData ItemOID="IT.VS.VSDTC" Value="2013-09-15"/>
      <ItemData ItemOID="IT.VS.VSDY" Value="18"/>
    </ItemGroupData>
    <ItemGroupData ItemGroupOID="IG.VS" data:ItemGroupDataSeq="165">
      <ItemData ItemOID="IT.VS.STUDYID" Value="CDISCPILOT01"/>
      <ItemData ItemOID="IT.VS.DOMAIN" Value="VS"/>
      <ItemData ItemOID="IT.VS.USUBJID" Value="CDISC003"/>
      <ItemData ItemOID="IT.VS.VSSEQ" Value="67"/>
      <ItemData ItemOID="IT.VS.VSTESTCD" Value="SYSBP"/>
      <ItemData ItemOID="IT.VS.VSTEST" Value="Systolic Blood Pressure"/>
      <ItemData ItemOID="IT.VS.VSPOS" Value="STANDING"/>
      <ItemData ItemOID="IT.VS.VSORRES" Value="123"/>
      <ItemData ItemOID="IT.VS.VSORRESU" Value="mmHg"/>
      <ItemData ItemOID="IT.VS.VSSTRESC" Value="123"/>
      <ItemData ItemOID="IT.VS.VSSTRESN" Value="123"/>
      <ItemData ItemOID="IT.VS.VSSTRESU" Value="mmHg"/>
      <ItemData ItemOID="IT.VS.VSREPNUM" Value="3"/>
      <ItemData ItemOID="IT.VS.VISITNUM" Value="4"/>
      <ItemData ItemOID="IT.VS.VISIT" Value="WEEK 2"/>
      <ItemData ItemOID="IT.VS.EPOCH" Value="TREATMENT"/>
      <ItemData ItemOID="IT.VS.VSDTC" Value="2013-09-15"/>
      <ItemData ItemOID="IT.VS.VSDY" Value="18"/>
    </ItemGroupData>
    <ItemGroupData ItemGroupOID="IG.VS" data:ItemGroupDataSeq="166">
      <ItemData ItemOID="IT.VS.STUDYID" Value="CDISCPILOT01"/>
      <ItemData ItemOID="IT.VS.DOMAIN" Value="VS"/>
      <ItemData ItemOID="IT.VS.USUBJID" Value="CDISC003"/>
      <ItemData ItemOID="IT.VS.VSSEQ" Value="68"/>
      <ItemData ItemOID="IT.VS.VSTESTCD" Value="SYSBP"/>
      <ItemData ItemOID="IT.VS.VSTEST" Value="Systolic Blood Pressure"/>
      <ItemData ItemOID="IT.VS.VSPOS" Value="SUPINE"/>
      <ItemData ItemOID="IT.VS.VSORRES" Value="123"/>
      <ItemData ItemOID="IT.VS.VSORRESU" Value="mmHg"/>
      <ItemData ItemOID="IT.VS.VSSTRESC" Value="123"/>
      <ItemData ItemOID="IT.VS.VSSTRESN" Value="123"/>
      <ItemData ItemOID="IT.VS.VSSTRESU" Value="mmHg"/>
      <ItemData ItemOID="IT.VS.VSREPNUM" Value="1"/>
      <ItemData ItemOID="IT.VS.VISITNUM" Value="5"/>
      <ItemData ItemOID="IT.VS.VISIT" Value="WEEK 4"/>
      <ItemData ItemOID="IT.VS.EPOCH" Value="TREATMENT"/>
      <ItemData ItemOID="IT.VS.VSDTC" Value="2013-09-24"/>
      <ItemData ItemOID="IT.VS.VSDY" Value="27"/>
    </ItemGroupData>
    <ItemGroupData ItemGroupOID="IG.VS" data:ItemGroupDataSeq="167">
      <ItemData ItemOID="IT.VS.STUDYID" Value="CDISCPILOT01"/>
      <ItemData ItemOID="IT.VS.DOMAIN" Value="VS"/>
      <ItemData ItemOID="IT.VS.USUBJID" Value="CDISC003"/>
      <ItemData ItemOID="IT.VS.VSSEQ" Value="69"/>
      <ItemData ItemOID="IT.VS.VSTESTCD" Value="SYSBP"/>
      <ItemData ItemOID="IT.VS.VSTEST" Value="Systolic Blood Pressure"/>
      <ItemData ItemOID="IT.VS.VSPOS" Value="STANDING"/>
      <ItemData ItemOID="IT.VS.VSORRES" Value="115"/>
      <ItemData ItemOID="IT.VS.VSORRESU" Value="mmHg"/>
      <ItemData ItemOID="IT.VS.VSSTRESC" Value="115"/>
      <ItemData ItemOID="IT.VS.VSSTRESN" Value="115"/>
      <ItemData ItemOID="IT.VS.VSSTRESU" Value="mmHg"/>
      <ItemData ItemOID="IT.VS.VSREPNUM" Value="2"/>
      <ItemData ItemOID="IT.VS.VISITNUM" Value="5"/>
      <ItemData ItemOID="IT.VS.VISIT" Value="WEEK 4"/>
      <ItemData ItemOID="IT.VS.EPOCH" Value="TREATMENT"/>
      <ItemData ItemOID="IT.VS.VSDTC" Value="2013-09-24"/>
      <ItemData ItemOID="IT.VS.VSDY" Value="27"/>
    </ItemGroupData>
    <ItemGroupData ItemGroupOID="IG.VS" data:ItemGroupDataSeq="168">
      <ItemData ItemOID="IT.VS.STUDYID" Value="CDISCPILOT01"/>
      <ItemData ItemOID="IT.VS.DOMAIN" Value="VS"/>
      <ItemData ItemOID="IT.VS.USUBJID" Value="CDISC003"/>
      <ItemData ItemOID="IT.VS.VSSEQ" Value="70"/>
      <ItemData ItemOID="IT.VS.VSTESTCD" Value="SYSBP"/>
      <ItemData ItemOID="IT.VS.VSTEST" Value="Systolic Blood Pressure"/>
      <ItemData ItemOID="IT.VS.VSPOS" Value="STANDING"/>
      <ItemData ItemOID="IT.VS.VSORRES" Value="131"/>
      <ItemData ItemOID="IT.VS.VSORRESU" Value="mmHg"/>
      <ItemData ItemOID="IT.VS.VSSTRESC" Value="131"/>
      <ItemData ItemOID="IT.VS.VSSTRESN" Value="131"/>
      <ItemData ItemOID="IT.VS.VSSTRESU" Value="mmHg"/>
      <ItemData ItemOID="IT.VS.VSREPNUM" Value="3"/>
      <ItemData ItemOID="IT.VS.VISITNUM" Value="5"/>
      <ItemData ItemOID="IT.VS.VISIT" Value="WEEK 4"/>
      <ItemData ItemOID="IT.VS.EPOCH" Value="TREATMENT"/>
      <ItemData ItemOID="IT.VS.VSDTC" Value="2013-09-24"/>
      <ItemData ItemOID="IT.VS.VSDY" Value="27"/>
    </ItemGroupData>
    <ItemGroupData ItemGroupOID="IG.VS" data:ItemGroupDataSeq="169">
      <ItemData ItemOID="IT.VS.STUDYID" Value="CDISCPILOT01"/>
      <ItemData ItemOID="IT.VS.DOMAIN" Value="VS"/>
      <ItemData ItemOID="IT.VS.USUBJID" Value="CDISC003"/>
      <ItemData ItemOID="IT.VS.VSSEQ" Value="71"/>
      <ItemData ItemOID="IT.VS.VSTESTCD" Value="SYSBP"/>
      <ItemData ItemOID="IT.VS.VSTEST" Value="Systolic Blood Pressure"/>
      <ItemData ItemOID="IT.VS.VSPOS" Value="SUPINE"/>
      <ItemData ItemOID="IT.VS.VSORRES" Value="108"/>
      <ItemData ItemOID="IT.VS.VSORRESU" Value="mmHg"/>
      <ItemData ItemOID="IT.VS.VSSTRESC" Value="108"/>
      <ItemData ItemOID="IT.VS.VSSTRESN" Value="108"/>
      <ItemData ItemOID="IT.VS.VSSTRESU" Value="mmHg"/>
      <ItemData ItemOID="IT.VS.VSREPNUM" Value="1"/>
      <ItemData ItemOID="IT.VS.VISITNUM" Value="7"/>
      <ItemData ItemOID="IT.VS.VISIT" Value="WEEK 6"/>
      <ItemData ItemOID="IT.VS.EPOCH" Value="TREATMENT"/>
      <ItemData ItemOID="IT.VS.VSDTC" Value="2013-10-08"/>
      <ItemData ItemOID="IT.VS.VSDY" Value="41"/>
    </ItemGroupData>
    <ItemGroupData ItemGroupOID="IG.VS" data:ItemGroupDataSeq="170">
      <ItemData ItemOID="IT.VS.STUDYID" Value="CDISCPILOT01"/>
      <ItemData ItemOID="IT.VS.DOMAIN" Value="VS"/>
      <ItemData ItemOID="IT.VS.USUBJID" Value="CDISC003"/>
      <ItemData ItemOID="IT.VS.VSSEQ" Value="72"/>
      <ItemData ItemOID="IT.VS.VSTESTCD" Value="SYSBP"/>
      <ItemData ItemOID="IT.VS.VSTEST" Value="Systolic Blood Pressure"/>
      <ItemData ItemOID="IT.VS.VSPOS" Value="STANDING"/>
      <ItemData ItemOID="IT.VS.VSORRES" Value="115"/>
      <ItemData ItemOID="IT.VS.VSORRESU" Value="mmHg"/>
      <ItemData ItemOID="IT.VS.VSSTRESC" Value="115"/>
      <ItemData ItemOID="IT.VS.VSSTRESN" Value="115"/>
      <ItemData ItemOID="IT.VS.VSSTRESU" Value="mmHg"/>
      <ItemData ItemOID="IT.VS.VSREPNUM" Value="2"/>
      <ItemData ItemOID="IT.VS.VISITNUM" Value="7"/>
      <ItemData ItemOID="IT.VS.VISIT" Value="WEEK 6"/>
      <ItemData ItemOID="IT.VS.EPOCH" Value="TREATMENT"/>
      <ItemData ItemOID="IT.VS.VSDTC" Value="2013-10-08"/>
      <ItemData ItemOID="IT.VS.VSDY" Value="41"/>
    </ItemGroupData>
    <ItemGroupData ItemGroupOID="IG.VS" data:ItemGroupDataSeq="171">
      <ItemData ItemOID="IT.VS.STUDYID" Value="CDISCPILOT01"/>
      <ItemData ItemOID="IT.VS.DOMAIN" Value="VS"/>
      <ItemData ItemOID="IT.VS.USUBJID" Value="CDISC003"/>
      <ItemData ItemOID="IT.VS.VSSEQ" Value="73"/>
      <ItemData ItemOID="IT.VS.VSTESTCD" Value="SYSBP"/>
      <ItemData ItemOID="IT.VS.VSTEST" Value="Systolic Blood Pressure"/>
      <ItemData ItemOID="IT.VS.VSPOS" Value="STANDING"/>
      <ItemData ItemOID="IT.VS.VSORRES" Value="123"/>
      <ItemData ItemOID="IT.VS.VSORRESU" Value="mmHg"/>
      <ItemData ItemOID="IT.VS.VSSTRESC" Value="123"/>
      <ItemData ItemOID="IT.VS.VSSTRESN" Value="123"/>
      <ItemData ItemOID="IT.VS.VSSTRESU" Value="mmHg"/>
      <ItemData ItemOID="IT.VS.VSREPNUM" Value="3"/>
      <ItemData ItemOID="IT.VS.VISITNUM" Value="7"/>
      <ItemData ItemOID="IT.VS.VISIT" Value="WEEK 6"/>
      <ItemData ItemOID="IT.VS.EPOCH" Value="TREATMENT"/>
      <ItemData ItemOID="IT.VS.VSDTC" Value="2013-10-08"/>
      <ItemData ItemOID="IT.VS.VSDY" Value="41"/>
    </ItemGroupData>
    <ItemGroupData ItemGroupOID="IG.VS" data:ItemGroupDataSeq="172">
      <ItemData ItemOID="IT.VS.STUDYID" Value="CDISCPILOT01"/>
      <ItemData ItemOID="IT.VS.DOMAIN" Value="VS"/>
      <ItemData ItemOID="IT.VS.USUBJID" Value="CDISC003"/>
      <ItemData ItemOID="IT.VS.VSSEQ" Value="74"/>
      <ItemData ItemOID="IT.VS.VSTESTCD" Value="SYSBP"/>
      <ItemData ItemOID="IT.VS.VSTEST" Value="Systolic Blood Pressure"/>
      <ItemData ItemOID="IT.VS.VSPOS" Value="SUPINE"/>
      <ItemData ItemOID="IT.VS.VSORRES" Value="115"/>
      <ItemData ItemOID="IT.VS.VSORRESU" Value="mmHg"/>
      <ItemData ItemOID="IT.VS.VSSTRESC" Value="115"/>
      <ItemData ItemOID="IT.VS.VSSTRESN" Value="115"/>
      <ItemData ItemOID="IT.VS.VSSTRESU" Value="mmHg"/>
      <ItemData ItemOID="IT.VS.VSREPNUM" Value="1"/>
      <ItemData ItemOID="IT.VS.VISITNUM" Value="8"/>
      <ItemData ItemOID="IT.VS.VISIT" Value="WEEK 8"/>
      <ItemData ItemOID="IT.VS.EPOCH" Value="TREATMENT"/>
      <ItemData ItemOID="IT.VS.VSDTC" Value="2013-10-22"/>
      <ItemData ItemOID="IT.VS.VSDY" Value="55"/>
    </ItemGroupData>
    <ItemGroupData ItemGroupOID="IG.VS" data:ItemGroupDataSeq="173">
      <ItemData ItemOID="IT.VS.STUDYID" Value="CDISCPILOT01"/>
      <ItemData ItemOID="IT.VS.DOMAIN" Value="VS"/>
      <ItemData ItemOID="IT.VS.USUBJID" Value="CDISC003"/>
      <ItemData ItemOID="IT.VS.VSSEQ" Value="75"/>
      <ItemData ItemOID="IT.VS.VSTESTCD" Value="SYSBP"/>
      <ItemData ItemOID="IT.VS.VSTEST" Value="Systolic Blood Pressure"/>
      <ItemData ItemOID="IT.VS.VSPOS" Value="STANDING"/>
      <ItemData ItemOID="IT.VS.VSORRES" Value="115"/>
      <ItemData ItemOID="IT.VS.VSORRESU" Value="mmHg"/>
      <ItemData ItemOID="IT.VS.VSSTRESC" Value="115"/>
      <ItemData ItemOID="IT.VS.VSSTRESN" Value="115"/>
      <ItemData ItemOID="IT.VS.VSSTRESU" Value="mmHg"/>
      <ItemData ItemOID="IT.VS.VSREPNUM" Value="2"/>
      <ItemData ItemOID="IT.VS.VISITNUM" Value="8"/>
      <ItemData ItemOID="IT.VS.VISIT" Value="WEEK 8"/>
      <ItemData ItemOID="IT.VS.EPOCH" Value="TREATMENT"/>
      <ItemData ItemOID="IT.VS.VSDTC" Value="2013-10-22"/>
      <ItemData ItemOID="IT.VS.VSDY" Value="55"/>
    </ItemGroupData>
    <ItemGroupData ItemGroupOID="IG.VS" data:ItemGroupDataSeq="174">
      <ItemData ItemOID="IT.VS.STUDYID" Value="CDISCPILOT01"/>
      <ItemData ItemOID="IT.VS.DOMAIN" Value="VS"/>
      <ItemData ItemOID="IT.VS.USUBJID" Value="CDISC003"/>
      <ItemData ItemOID="IT.VS.VSSEQ" Value="76"/>
      <ItemData ItemOID="IT.VS.VSTESTCD" Value="SYSBP"/>
      <ItemData ItemOID="IT.VS.VSTEST" Value="Systolic Blood Pressure"/>
      <ItemData ItemOID="IT.VS.VSPOS" Value="STANDING"/>
      <ItemData ItemOID="IT.VS.VSORRES" Value="114"/>
      <ItemData ItemOID="IT.VS.VSORRESU" Value="mmHg"/>
      <ItemData ItemOID="IT.VS.VSSTRESC" Value="114"/>
      <ItemData ItemOID="IT.VS.VSSTRESN" Value="114"/>
      <ItemData ItemOID="IT.VS.VSSTRESU" Value="mmHg"/>
      <ItemData ItemOID="IT.VS.VSREPNUM" Value="3"/>
      <ItemData ItemOID="IT.VS.VISITNUM" Value="8"/>
      <ItemData ItemOID="IT.VS.VISIT" Value="WEEK 8"/>
      <ItemData ItemOID="IT.VS.EPOCH" Value="TREATMENT"/>
      <ItemData ItemOID="IT.VS.VSDTC" Value="2013-10-22"/>
      <ItemData ItemOID="IT.VS.VSDY" Value="55"/>
    </ItemGroupData>
    <ItemGroupData ItemGroupOID="IG.VS" data:ItemGroupDataSeq="175">
      <ItemData ItemOID="IT.VS.STUDYID" Value="CDISCPILOT01"/>
      <ItemData ItemOID="IT.VS.DOMAIN" Value="VS"/>
      <ItemData ItemOID="IT.VS.USUBJID" Value="CDISC003"/>
      <ItemData ItemOID="IT.VS.VSSEQ" Value="77"/>
      <ItemData ItemOID="IT.VS.VSTESTCD" Value="SYSBP"/>
      <ItemData ItemOID="IT.VS.VSTEST" Value="Systolic Blood Pressure"/>
      <ItemData ItemOID="IT.VS.VSPOS" Value="SUPINE"/>
      <ItemData ItemOID="IT.VS.VSORRES" Value="115"/>
      <ItemData ItemOID="IT.VS.VSORRESU" Value="mmHg"/>
      <ItemData ItemOID="IT.VS.VSSTRESC" Value="115"/>
      <ItemData ItemOID="IT.VS.VSSTRESN" Value="115"/>
      <ItemData ItemOID="IT.VS.VSSTRESU" Value="mmHg"/>
      <ItemData ItemOID="IT.VS.VSREPNUM" Value="1"/>
      <ItemData ItemOID="IT.VS.VISITNUM" Value="9"/>
      <ItemData ItemOID="IT.VS.VISIT" Value="WEEK 12"/>
      <ItemData ItemOID="IT.VS.EPOCH" Value="TREATMENT"/>
      <ItemData ItemOID="IT.VS.VSDTC" Value="2013-11-05"/>
      <ItemData ItemOID="IT.VS.VSDY" Value="69"/>
    </ItemGroupData>
    <ItemGroupData ItemGroupOID="IG.VS" data:ItemGroupDataSeq="176">
      <ItemData ItemOID="IT.VS.STUDYID" Value="CDISCPILOT01"/>
      <ItemData ItemOID="IT.VS.DOMAIN" Value="VS"/>
      <ItemData ItemOID="IT.VS.USUBJID" Value="CDISC003"/>
      <ItemData ItemOID="IT.VS.VSSEQ" Value="78"/>
      <ItemData ItemOID="IT.VS.VSTESTCD" Value="SYSBP"/>
      <ItemData ItemOID="IT.VS.VSTEST" Value="Systolic Blood Pressure"/>
      <ItemData ItemOID="IT.VS.VSPOS" Value="STANDING"/>
      <ItemData ItemOID="IT.VS.VSORRES" Value="124"/>
      <ItemData ItemOID="IT.VS.VSORRESU" Value="mmHg"/>
      <ItemData ItemOID="IT.VS.VSSTRESC" Value="124"/>
      <ItemData ItemOID="IT.VS.VSSTRESN" Value="124"/>
      <ItemData ItemOID="IT.VS.VSSTRESU" Value="mmHg"/>
      <ItemData ItemOID="IT.VS.VSREPNUM" Value="2"/>
      <ItemData ItemOID="IT.VS.VISITNUM" Value="9"/>
      <ItemData ItemOID="IT.VS.VISIT" Value="WEEK 12"/>
      <ItemData ItemOID="IT.VS.EPOCH" Value="TREATMENT"/>
      <ItemData ItemOID="IT.VS.VSDTC" Value="2013-11-05"/>
      <ItemData ItemOID="IT.VS.VSDY" Value="69"/>
    </ItemGroupData>
    <ItemGroupData ItemGroupOID="IG.VS" data:ItemGroupDataSeq="177">
      <ItemData ItemOID="IT.VS.STUDYID" Value="CDISCPILOT01"/>
      <ItemData ItemOID="IT.VS.DOMAIN" Value="VS"/>
      <ItemData ItemOID="IT.VS.USUBJID" Value="CDISC003"/>
      <ItemData ItemOID="IT.VS.VSSEQ" Value="79"/>
      <ItemData ItemOID="IT.VS.VSTESTCD" Value="SYSBP"/>
      <ItemData ItemOID="IT.VS.VSTEST" Value="Systolic Blood Pressure"/>
      <ItemData ItemOID="IT.VS.VSPOS" Value="STANDING"/>
      <ItemData ItemOID="IT.VS.VSORRES" Value="131"/>
      <ItemData ItemOID="IT.VS.VSORRESU" Value="mmHg"/>
      <ItemData ItemOID="IT.VS.VSSTRESC" Value="131"/>
      <ItemData ItemOID="IT.VS.VSSTRESN" Value="131"/>
      <ItemData ItemOID="IT.VS.VSSTRESU" Value="mmHg"/>
      <ItemData ItemOID="IT.VS.VSREPNUM" Value="3"/>
      <ItemData ItemOID="IT.VS.VISITNUM" Value="9"/>
      <ItemData ItemOID="IT.VS.VISIT" Value="WEEK 12"/>
      <ItemData ItemOID="IT.VS.EPOCH" Value="TREATMENT"/>
      <ItemData ItemOID="IT.VS.VSDTC" Value="2013-11-05"/>
      <ItemData ItemOID="IT.VS.VSDY" Value="69"/>
    </ItemGroupData>
    <ItemGroupData ItemGroupOID="IG.VS" data:ItemGroupDataSeq="178">
      <ItemData ItemOID="IT.VS.STUDYID" Value="CDISCPILOT01"/>
      <ItemData ItemOID="IT.VS.DOMAIN" Value="VS"/>
      <ItemData ItemOID="IT.VS.USUBJID" Value="CDISC003"/>
      <ItemData ItemOID="IT.VS.VSSEQ" Value="80"/>
      <ItemData ItemOID="IT.VS.VSTESTCD" Value="SYSBP"/>
      <ItemData ItemOID="IT.VS.VSTEST" Value="Systolic Blood Pressure"/>
      <ItemData ItemOID="IT.VS.VSPOS" Value="SUPINE"/>
      <ItemData ItemOID="IT.VS.VSORRES" Value="122"/>
      <ItemData ItemOID="IT.VS.VSORRESU" Value="mmHg"/>
      <ItemData ItemOID="IT.VS.VSSTRESC" Value="122"/>
      <ItemData ItemOID="IT.VS.VSSTRESN" Value="122"/>
      <ItemData ItemOID="IT.VS.VSSTRESU" Value="mmHg"/>
      <ItemData ItemOID="IT.VS.VSREPNUM" Value="1"/>
      <ItemData ItemOID="IT.VS.VISITNUM" Value="201"/>
      <ItemData ItemOID="IT.VS.VISIT" Value="EARLY DISCONTINUATION RETRIEVAL"/>
      <ItemData ItemOID="IT.VS.EPOCH" Value="TREATMENT"/>
      <ItemData ItemOID="IT.VS.VSDTC" Value="2014-02-13"/>
      <ItemData ItemOID="IT.VS.VSDY" Value="169"/>
    </ItemGroupData>
    <ItemGroupData ItemGroupOID="IG.VS" data:ItemGroupDataSeq="179">
      <ItemData ItemOID="IT.VS.STUDYID" Value="CDISCPILOT01"/>
      <ItemData ItemOID="IT.VS.DOMAIN" Value="VS"/>
      <ItemData ItemOID="IT.VS.USUBJID" Value="CDISC003"/>
      <ItemData ItemOID="IT.VS.VSSEQ" Value="81"/>
      <ItemData ItemOID="IT.VS.VSTESTCD" Value="SYSBP"/>
      <ItemData ItemOID="IT.VS.VSTEST" Value="Systolic Blood Pressure"/>
      <ItemData ItemOID="IT.VS.VSPOS" Value="STANDING"/>
      <ItemData ItemOID="IT.VS.VSORRES" Value="117"/>
      <ItemData ItemOID="IT.VS.VSORRESU" Value="mmHg"/>
      <ItemData ItemOID="IT.VS.VSSTRESC" Value="117"/>
      <ItemData ItemOID="IT.VS.VSSTRESN" Value="117"/>
      <ItemData ItemOID="IT.VS.VSSTRESU" Value="mmHg"/>
      <ItemData ItemOID="IT.VS.VSREPNUM" Value="2"/>
      <ItemData ItemOID="IT.VS.VISITNUM" Value="201"/>
      <ItemData ItemOID="IT.VS.VISIT" Value="EARLY DISCONTINUATION RETRIEVAL"/>
      <ItemData ItemOID="IT.VS.EPOCH" Value="TREATMENT"/>
      <ItemData ItemOID="IT.VS.VSDTC" Value="2014-02-13"/>
      <ItemData ItemOID="IT.VS.VSDY" Value="169"/>
    </ItemGroupData>
    <ItemGroupData ItemGroupOID="IG.VS" data:ItemGroupDataSeq="180">
      <ItemData ItemOID="IT.VS.STUDYID" Value="CDISCPILOT01"/>
      <ItemData ItemOID="IT.VS.DOMAIN" Value="VS"/>
      <ItemData ItemOID="IT.VS.USUBJID" Value="CDISC003"/>
      <ItemData ItemOID="IT.VS.VSSEQ" Value="82"/>
      <ItemData ItemOID="IT.VS.VSTESTCD" Value="SYSBP"/>
      <ItemData ItemOID="IT.VS.VSTEST" Value="Systolic Blood Pressure"/>
      <ItemData ItemOID="IT.VS.VSPOS" Value="STANDING"/>
      <ItemData ItemOID="IT.VS.VSORRES" Value="131"/>
      <ItemData ItemOID="IT.VS.VSORRESU" Value="mmHg"/>
      <ItemData ItemOID="IT.VS.VSSTRESC" Value="131"/>
      <ItemData ItemOID="IT.VS.VSSTRESN" Value="131"/>
      <ItemData ItemOID="IT.VS.VSSTRESU" Value="mmHg"/>
      <ItemData ItemOID="IT.VS.VSREPNUM" Value="3"/>
      <ItemData ItemOID="IT.VS.VISITNUM" Value="201"/>
      <ItemData ItemOID="IT.VS.VISIT" Value="EARLY DISCONTINUATION RETRIEVAL"/>
      <ItemData ItemOID="IT.VS.EPOCH" Value="TREATMENT"/>
      <ItemData ItemOID="IT.VS.VSDTC" Value="2014-02-13"/>
      <ItemData ItemOID="IT.VS.VSDY" Value="169"/>
    </ItemGroupData>
    <ItemGroupData ItemGroupOID="IG.VS" data:ItemGroupDataSeq="181">
      <ItemData ItemOID="IT.VS.STUDYID" Value="CDISCPILOT01"/>
      <ItemData ItemOID="IT.VS.DOMAIN" Value="VS"/>
      <ItemData ItemOID="IT.VS.USUBJID" Value="CDISC003"/>
      <ItemData ItemOID="IT.VS.VSSEQ" Value="83"/>
      <ItemData ItemOID="IT.VS.VSTESTCD" Value="TEMP"/>
      <ItemData ItemOID="IT.VS.VSTEST" Value="Temperature"/>
      <ItemData ItemOID="IT.VS.VSORRES" Value="97.7"/>
      <ItemData ItemOID="IT.VS.VSORRESU" Value="F"/>
      <ItemData ItemOID="IT.VS.VSSTRESC" Value="36.5"/>
      <ItemData ItemOID="IT.VS.VSSTRESN" Value="36.5"/>
      <ItemData ItemOID="IT.VS.VSSTRESU" Value="C"/>
      <ItemData ItemOID="IT.VS.VSLOC" Value="ORAL CAVITY"/>
      <ItemData ItemOID="IT.VS.VISITNUM" Value="1"/>
      <ItemData ItemOID="IT.VS.VISIT" Value="SCREENING 1"/>
      <ItemData ItemOID="IT.VS.EPOCH" Value="SCREENING"/>
      <ItemData ItemOID="IT.VS.VSDTC" Value="2013-08-20"/>
      <ItemData ItemOID="IT.VS.VSDY" Value="-9"/>
    </ItemGroupData>
    <ItemGroupData ItemGroupOID="IG.VS" data:ItemGroupDataSeq="182">
      <ItemData ItemOID="IT.VS.STUDYID" Value="CDISCPILOT01"/>
      <ItemData ItemOID="IT.VS.DOMAIN" Value="VS"/>
      <ItemData ItemOID="IT.VS.USUBJID" Value="CDISC003"/>
      <ItemData ItemOID="IT.VS.VSSEQ" Value="84"/>
      <ItemData ItemOID="IT.VS.VSTESTCD" Value="TEMP"/>
      <ItemData ItemOID="IT.VS.VSTEST" Value="Temperature"/>
      <ItemData ItemOID="IT.VS.VSORRES" Value="98.9"/>
      <ItemData ItemOID="IT.VS.VSORRESU" Value="F"/>
      <ItemData ItemOID="IT.VS.VSSTRESC" Value="37.17"/>
      <ItemData ItemOID="IT.VS.VSSTRESN" Value="37.17"/>
      <ItemData ItemOID="IT.VS.VSSTRESU" Value="C"/>
      <ItemData ItemOID="IT.VS.VSLOC" Value="ORAL CAVITY"/>
      <ItemData ItemOID="IT.VS.VISITNUM" Value="2"/>
      <ItemData ItemOID="IT.VS.VISIT" Value="SCREENING 2"/>
      <ItemData ItemOID="IT.VS.EPOCH" Value="SCREENING"/>
      <ItemData ItemOID="IT.VS.VSDTC" Value="2013-08-27"/>
      <ItemData ItemOID="IT.VS.VSDY" Value="-2"/>
    </ItemGroupData>
    <ItemGroupData ItemGroupOID="IG.VS" data:ItemGroupDataSeq="183">
      <ItemData ItemOID="IT.VS.STUDYID" Value="CDISCPILOT01"/>
      <ItemData ItemOID="IT.VS.DOMAIN" Value="VS"/>
      <ItemData ItemOID="IT.VS.USUBJID" Value="CDISC003"/>
      <ItemData ItemOID="IT.VS.VSSEQ" Value="85"/>
      <ItemData ItemOID="IT.VS.VSTESTCD" Value="TEMP"/>
      <ItemData ItemOID="IT.VS.VSTEST" Value="Temperature"/>
      <ItemData ItemOID="IT.VS.VSORRES" Value="96.3"/>
      <ItemData ItemOID="IT.VS.VSORRESU" Value="F"/>
      <ItemData ItemOID="IT.VS.VSSTRESC" Value="35.72"/>
      <ItemData ItemOID="IT.VS.VSSTRESN" Value="35.72"/>
      <ItemData ItemOID="IT.VS.VSSTRESU" Value="C"/>
      <ItemData ItemOID="IT.VS.VSLOC" Value="ORAL CAVITY"/>
      <ItemData ItemOID="IT.VS.VSLOBXFL" Value="Y"/>
      <ItemData ItemOID="IT.VS.VISITNUM" Value="3"/>
      <ItemData ItemOID="IT.VS.VISIT" Value="BASELINE"/>
      <ItemData ItemOID="IT.VS.EPOCH" Value="SCREENING"/>
      <ItemData ItemOID="IT.VS.VSDTC" Value="2013-08-29"/>
      <ItemData ItemOID="IT.VS.VSDY" Value="1"/>
    </ItemGroupData>
    <ItemGroupData ItemGroupOID="IG.VS" data:ItemGroupDataSeq="184">
      <ItemData ItemOID="IT.VS.STUDYID" Value="CDISCPILOT01"/>
      <ItemData ItemOID="IT.VS.DOMAIN" Value="VS"/>
      <ItemData ItemOID="IT.VS.USUBJID" Value="CDISC003"/>
      <ItemData ItemOID="IT.VS.VSSEQ" Value="86"/>
      <ItemData ItemOID="IT.VS.VSTESTCD" Value="TEMP"/>
      <ItemData ItemOID="IT.VS.VSTEST" Value="Temperature"/>
      <ItemData ItemOID="IT.VS.VSORRES" Value="98.3"/>
      <ItemData ItemOID="IT.VS.VSORRESU" Value="F"/>
      <ItemData ItemOID="IT.VS.VSSTRESC" Value="36.83"/>
      <ItemData ItemOID="IT.VS.VSSTRESN" Value="36.83"/>
