<?xml version="1.0" encoding="UTF-8"?>
<!-- Dataset-XML: Untyped Data Example  --> 
<!-- Built from the SAS XPT files published with the SDTM-MSG (SDTM Metadata Submission Guidelines) V1 --> 
<!-- Prepared by Marcelina Hungria / DIcore Group, LLC --> 
<ODM
  xmlns="http://www.cdisc.org/ns/odm/v1.3"
  xmlns:xlink="http://www.w3.org/1999/xlink" 
  xmlns:data="http://www.cdisc.org/ns/Dataset-XML/v1.0"
  FileType="Snapshot"
  ODMVersion="1.3.2"
  data:DatasetXMLVersion="1.0.0"
  FileOID="www.cdisc.org.Studycdisc01-Define-XML_2.0.0(IG.AE)"
  PriorFileOID="www.cdisc.org.Studycdisc01-Define-XML_2.0.0"
  Originator="CDISC Dataset-XML Team"
  CreationDateTime="2014-04-01T09:31:03">
  <ClinicalData
    StudyOID="cdisc01"
    MetaDataVersionOID="MDV.CDISC01.SDTMIG.3.1.2.SDTM.1.2">
    <!-- Dataset (AE) -->
    <ItemGroupData ItemGroupOID="IG.AE" data:ItemGroupDataSeq="1">
      <ItemData ItemOID="IT.STUDYID" Value="CDISC01"/>
      <ItemData ItemOID="IT.AE.DOMAIN" Value="AE"/>
      <ItemData ItemOID="IT.USUBJID" Value="CDISC01.100008"/>
      <ItemData ItemOID="IT.AE.AESEQ" Value="1"/>
      <ItemData ItemOID="IT.AE.AESPID" Value="1"/>
      <ItemData ItemOID="IT.AE.AETERM" Value="AGITATED"/>
      <ItemData ItemOID="IT.AE.AEMODIFY" Value="AGITATION"/>
      <ItemData ItemOID="IT.AE.AEDECOD" Value="Agitation"/>
      <ItemData ItemOID="IT.AE.AEBODSYS" Value="Psychiatric disorders"/>
      <ItemData ItemOID="IT.AE.AESEV" Value="MILD"/>
      <ItemData ItemOID="IT.AE.AESER" Value="N"/>
      <ItemData ItemOID="IT.AE.AEACN" Value="DOSE NOT CHANGED"/>
      <ItemData ItemOID="IT.AE.AEREL" Value="POSSIBLY RELATED"/>
      <ItemData ItemOID="IT.AE.AESTDTC" Value="2003-05"/>
      <ItemData ItemOID="IT.AE.AESTDY" Value="3"/>
      <ItemData ItemOID="IT.AE.AEENRF" Value="AFTER"/>
    </ItemGroupData>
    <ItemGroupData ItemGroupOID="IG.AE" data:ItemGroupDataSeq="2">
      <ItemData ItemOID="IT.STUDYID" Value="CDISC01"/>
      <ItemData ItemOID="IT.AE.DOMAIN" Value="AE"/>
      <ItemData ItemOID="IT.USUBJID" Value="CDISC01.100008"/>
      <ItemData ItemOID="IT.AE.AESEQ" Value="2"/>
      <ItemData ItemOID="IT.AE.AESPID" Value="2"/>
      <ItemData ItemOID="IT.AE.AETERM" Value="ANXIETY"/>
      <ItemData ItemOID="IT.AE.AEDECOD" Value="Anxiety"/>
      <ItemData ItemOID="IT.AE.AEBODSYS" Value="Psychiatric disorders"/>
      <ItemData ItemOID="IT.AE.AESEV" Value="MODERATE"/>
      <ItemData ItemOID="IT.AE.AESER" Value="N"/>
      <ItemData ItemOID="IT.AE.AEACN" Value="DOSE NOT CHANGED"/>
      <ItemData ItemOID="IT.AE.AEREL" Value="POSSIBLY RELATED"/>
      <ItemData ItemOID="IT.AE.AESTDTC" Value="2003-05-13"/>
      <ItemData ItemOID="IT.AE.AESTDY" Value="15"/>
      <ItemData ItemOID="IT.AE.AEENRF" Value="AFTER"/>
    </ItemGroupData>
    <ItemGroupData ItemGroupOID="IG.AE" data:ItemGroupDataSeq="3">
      <ItemData ItemOID="IT.STUDYID" Value="CDISC01"/>
      <ItemData ItemOID="IT.AE.DOMAIN" Value="AE"/>
      <ItemData ItemOID="IT.USUBJID" Value="CDISC01.100008"/>
      <ItemData ItemOID="IT.AE.AESEQ" Value="3"/>
      <ItemData ItemOID="IT.AE.AESPID" Value="3"/>
      <ItemData ItemOID="IT.AE.AETERM" Value="DECREASED APPETITE"/>
      <ItemData ItemOID="IT.AE.AEDECOD" Value="Decreased appetite"/>
      <ItemData ItemOID="IT.AE.AEBODSYS" Value="Metabolism and nutrition disorders"/>
      <ItemData ItemOID="IT.AE.AESEV" Value="MILD"/>
      <ItemData ItemOID="IT.AE.AESER" Value="N"/>
      <ItemData ItemOID="IT.AE.AEACN" Value="DOSE NOT CHANGED"/>
      <ItemData ItemOID="IT.AE.AEREL" Value="POSSIBLY RELATED"/>
      <ItemData ItemOID="IT.AE.AESTDTC" Value="2003-08-19"/>
      <ItemData ItemOID="IT.AE.AEENDTC" Value="2003-09-15"/>
      <ItemData ItemOID="IT.AE.AESTDY" Value="113"/>
      <ItemData ItemOID="IT.AE.AEENDY" Value="140"/>
    </ItemGroupData>
    <ItemGroupData ItemGroupOID="IG.AE" data:ItemGroupDataSeq="4">
      <ItemData ItemOID="IT.STUDYID" Value="CDISC01"/>
      <ItemData ItemOID="IT.AE.DOMAIN" Value="AE"/>
      <ItemData ItemOID="IT.USUBJID" Value="CDISC01.100014"/>
      <ItemData ItemOID="IT.AE.AESEQ" Value="1"/>
      <ItemData ItemOID="IT.AE.AESPID" Value="1"/>
      <ItemData ItemOID="IT.AE.AETERM" Value="DIARRHEA"/>
      <ItemData ItemOID="IT.AE.AEDECOD" Value="Diarrhoea"/>
      <ItemData ItemOID="IT.AE.AEBODSYS" Value="Gastrointestinal disorders"/>
      <ItemData ItemOID="IT.AE.AESEV" Value="MILD"/>
      <ItemData ItemOID="IT.AE.AESER" Value="N"/>
      <ItemData ItemOID="IT.AE.AEACN" Value="DOSE NOT CHANGED"/>
      <ItemData ItemOID="IT.AE.AEREL" Value="NOT RELATED"/>
      <ItemData ItemOID="IT.AE.AESTDTC" Value="2004-01-06"/>
      <ItemData ItemOID="IT.AE.AESTDY" Value="84"/>
      <ItemData ItemOID="IT.AE.AEENRF" Value="AFTER"/>
    </ItemGroupData>
    <ItemGroupData ItemGroupOID="IG.AE" data:ItemGroupDataSeq="5">
      <ItemData ItemOID="IT.STUDYID" Value="CDISC01"/>
      <ItemData ItemOID="IT.AE.DOMAIN" Value="AE"/>
      <ItemData ItemOID="IT.USUBJID" Value="CDISC01.100014"/>
      <ItemData ItemOID="IT.AE.AESEQ" Value="2"/>
      <ItemData ItemOID="IT.AE.AESPID" Value="2"/>
      <ItemData ItemOID="IT.AE.AETERM" Value="HEMORRHOIDS"/>
      <ItemData ItemOID="IT.AE.AEDECOD" Value="Haemorrhoids"/>
      <ItemData ItemOID="IT.AE.AEBODSYS" Value="Gastrointestinal disorders"/>
      <ItemData ItemOID="IT.AE.AESEV" Value="MODERATE"/>
      <ItemData ItemOID="IT.AE.AESER" Value="N"/>
      <ItemData ItemOID="IT.AE.AEACN" Value="DOSE NOT CHANGED"/>
      <ItemData ItemOID="IT.AE.AEREL" Value="NOT RELATED"/>
      <ItemData ItemOID="IT.AE.AESTDTC" Value="2004-01-06"/>
      <ItemData ItemOID="IT.AE.AESTDY" Value="84"/>
      <ItemData ItemOID="IT.AE.AEENRF" Value="AFTER"/>
    </ItemGroupData>
    <ItemGroupData ItemGroupOID="IG.AE" data:ItemGroupDataSeq="6">
      <ItemData ItemOID="IT.STUDYID" Value="CDISC01"/>
      <ItemData ItemOID="IT.AE.DOMAIN" Value="AE"/>
      <ItemData ItemOID="IT.USUBJID" Value="CDISC01.100014"/>
      <ItemData ItemOID="IT.AE.AESEQ" Value="3"/>
      <ItemData ItemOID="IT.AE.AESPID" Value="3"/>
      <ItemData ItemOID="IT.AE.AETERM" Value="HEADACHE"/>
      <ItemData ItemOID="IT.AE.AEDECOD" Value="Headache"/>
      <ItemData ItemOID="IT.AE.AEBODSYS" Value="Nervous system disorders"/>
      <ItemData ItemOID="IT.AE.AESEV" Value="MILD"/>
      <ItemData ItemOID="IT.AE.AESER" Value="N"/>
      <ItemData ItemOID="IT.AE.AEACN" Value="DOSE NOT CHANGED"/>
      <ItemData ItemOID="IT.AE.AEREL" Value="NOT RELATED"/>
      <ItemData ItemOID="IT.AE.AESTDTC" Value="2004-01-27"/>
      <ItemData ItemOID="IT.AE.AESTDY" Value="105"/>
      <ItemData ItemOID="IT.AE.AEENRF" Value="AFTER"/>
    </ItemGroupData>
    <ItemGroupData ItemGroupOID="IG.AE" data:ItemGroupDataSeq="7">
      <ItemData ItemOID="IT.STUDYID" Value="CDISC01"/>
      <ItemData ItemOID="IT.AE.DOMAIN" Value="AE"/>
      <ItemData ItemOID="IT.USUBJID" Value="CDISC01.100014"/>
      <ItemData ItemOID="IT.AE.AESEQ" Value="4"/>
      <ItemData ItemOID="IT.AE.AESPID" Value="4"/>
      <ItemData ItemOID="IT.AE.AETERM" Value="VOMIT"/>
      <ItemData ItemOID="IT.AE.AEMODIFY" Value="VOMITING"/>
      <ItemData ItemOID="IT.AE.AEDECOD" Value="Vomiting"/>
      <ItemData ItemOID="IT.AE.AEBODSYS" Value="Gastrointestinal disorders"/>
      <ItemData ItemOID="IT.AE.AESEV" Value="MODERATE"/>
      <ItemData ItemOID="IT.AE.AESER" Value="N"/>
      <ItemData ItemOID="IT.AE.AEACN" Value="DRUG INTERRUPTED"/>
      <ItemData ItemOID="IT.AE.AEREL" Value="POSSIBLY RELATED"/>
      <ItemData ItemOID="IT.AE.AESTDTC" Value="2004-02-03"/>
      <ItemData ItemOID="IT.AE.AEENDTC" Value="2004-02-03"/>
      <ItemData ItemOID="IT.AE.AESTDY" Value="112"/>
      <ItemData ItemOID="IT.AE.AEENDY" Value="112"/>
    </ItemGroupData>
    <ItemGroupData ItemGroupOID="IG.AE" data:ItemGroupDataSeq="8">
      <ItemData ItemOID="IT.STUDYID" Value="CDISC01"/>
      <ItemData ItemOID="IT.AE.DOMAIN" Value="AE"/>
      <ItemData ItemOID="IT.USUBJID" Value="CDISC01.100014"/>
      <ItemData ItemOID="IT.AE.AESEQ" Value="5"/>
      <ItemData ItemOID="IT.AE.AESPID" Value="5"/>
      <ItemData ItemOID="IT.AE.AETERM" Value="VOMIT"/>
      <ItemData ItemOID="IT.AE.AEMODIFY" Value="VOMITING"/>
      <ItemData ItemOID="IT.AE.AEDECOD" Value="Vomiting"/>
      <ItemData ItemOID="IT.AE.AEBODSYS" Value="Gastrointestinal disorders"/>
      <ItemData ItemOID="IT.AE.AESEV" Value="SEVERE"/>
      <ItemData ItemOID="IT.AE.AESER" Value="Y"/>
      <ItemData ItemOID="IT.AE.AEACN" Value="DRUG INTERRUPTED"/>
      <ItemData ItemOID="IT.AE.AEREL" Value="POSSIBLY RELATED"/>
      <ItemData ItemOID="IT.AE.AESTDTC" Value="2004-02-04"/>
      <ItemData ItemOID="IT.AE.AEENDTC" Value="2004-02-09"/>
      <ItemData ItemOID="IT.AE.AESTDY" Value="113"/>
      <ItemData ItemOID="IT.AE.AEENDY" Value="118"/>
    </ItemGroupData>
    <ItemGroupData ItemGroupOID="IG.AE" data:ItemGroupDataSeq="9">
      <ItemData ItemOID="IT.STUDYID" Value="CDISC01"/>
      <ItemData ItemOID="IT.AE.DOMAIN" Value="AE"/>
      <ItemData ItemOID="IT.USUBJID" Value="CDISC01.200001"/>
      <ItemData ItemOID="IT.AE.AESEQ" Value="1"/>
      <ItemData ItemOID="IT.AE.AESPID" Value="1"/>
      <ItemData ItemOID="IT.AE.AETERM" Value="ANXIETY"/>
      <ItemData ItemOID="IT.AE.AEDECOD" Value="Anxiety"/>
      <ItemData ItemOID="IT.AE.AEBODSYS" Value="Psychiatric disorders"/>
      <ItemData ItemOID="IT.AE.AESEV" Value="SEVERE"/>
      <ItemData ItemOID="IT.AE.AESER" Value="N"/>
      <ItemData ItemOID="IT.AE.AEACN" Value="DOSE NOT CHANGED"/>
      <ItemData ItemOID="IT.AE.AEREL" Value="POSSIBLY RELATED"/>
      <ItemData ItemOID="IT.AE.AESTDTC" Value="2003-10-16"/>
      <ItemData ItemOID="IT.AE.AEENDTC" Value="2003-10-20"/>
      <ItemData ItemOID="IT.AE.AESTDY" Value="17"/>
      <ItemData ItemOID="IT.AE.AEENDY" Value="21"/>
    </ItemGroupData>
    <ItemGroupData ItemGroupOID="IG.AE" data:ItemGroupDataSeq="10">
      <ItemData ItemOID="IT.STUDYID" Value="CDISC01"/>
      <ItemData ItemOID="IT.AE.DOMAIN" Value="AE"/>
      <ItemData ItemOID="IT.USUBJID" Value="CDISC01.200001"/>
      <ItemData ItemOID="IT.AE.AESEQ" Value="2"/>
      <ItemData ItemOID="IT.AE.AESPID" Value="5"/>
      <ItemData ItemOID="IT.AE.AETERM" Value="LEFT KNEE PAIN WORSENING"/>
      <ItemData ItemOID="IT.AE.AEDECOD" Value="Arthralgia"/>
      <ItemData ItemOID="IT.AE.AEBODSYS" Value="Musculoskeletal and connective tissue disorders"/>
      <ItemData ItemOID="IT.AE.AESEV" Value="SEVERE"/>
      <ItemData ItemOID="IT.AE.AESER" Value="N"/>
      <ItemData ItemOID="IT.AE.AEACN" Value="DRUG WITHDRAWN"/>
      <ItemData ItemOID="IT.AE.AEREL" Value="NOT RELATED"/>
      <ItemData ItemOID="IT.AE.AESTDTC" Value="2004-02-02"/>
      <ItemData ItemOID="IT.AE.AESTDY" Value="126"/>
      <ItemData ItemOID="IT.AE.AEENRF" Value="AFTER"/>
    </ItemGroupData>
    <ItemGroupData ItemGroupOID="IG.AE" data:ItemGroupDataSeq="11">
      <ItemData ItemOID="IT.STUDYID" Value="CDISC01"/>
      <ItemData ItemOID="IT.AE.DOMAIN" Value="AE"/>
      <ItemData ItemOID="IT.USUBJID" Value="CDISC01.200001"/>
      <ItemData ItemOID="IT.AE.AESEQ" Value="3"/>
      <ItemData ItemOID="IT.AE.AESPID" Value="3"/>
      <ItemData ItemOID="IT.AE.AETERM" Value="CONSTIPATION"/>
      <ItemData ItemOID="IT.AE.AEDECOD" Value="Constipation"/>
      <ItemData ItemOID="IT.AE.AEBODSYS" Value="Gastrointestinal disorders"/>
      <ItemData ItemOID="IT.AE.AESEV" Value="MODERATE"/>
      <ItemData ItemOID="IT.AE.AESER" Value="N"/>
      <ItemData ItemOID="IT.AE.AEACN" Value="DOSE NOT CHANGED"/>
      <ItemData ItemOID="IT.AE.AEREL" Value="NOT RELATED"/>
      <ItemData ItemOID="IT.AE.AESTDTC" Value="2003-12-25"/>
      <ItemData ItemOID="IT.AE.AESTDY" Value="87"/>
      <ItemData ItemOID="IT.AE.AEENRF" Value="AFTER"/>
    </ItemGroupData>
    <ItemGroupData ItemGroupOID="IG.AE" data:ItemGroupDataSeq="12">
      <ItemData ItemOID="IT.STUDYID" Value="CDISC01"/>
      <ItemData ItemOID="IT.AE.DOMAIN" Value="AE"/>
      <ItemData ItemOID="IT.USUBJID" Value="CDISC01.200001"/>
      <ItemData ItemOID="IT.AE.AESEQ" Value="4"/>
      <ItemData ItemOID="IT.AE.AESPID" Value="4"/>
      <ItemData ItemOID="IT.AE.AETERM" Value="TIREDNESS"/>
      <ItemData ItemOID="IT.AE.AEDECOD" Value="Fatigue"/>
      <ItemData ItemOID="IT.AE.AEBODSYS" Value="General disorders and administration site conditions"/>
      <ItemData ItemOID="IT.AE.AESEV" Value="SEVERE"/>
      <ItemData ItemOID="IT.AE.AESER" Value="N"/>
      <ItemData ItemOID="IT.AE.AEACN" Value="DOSE NOT CHANGED"/>
      <ItemData ItemOID="IT.AE.AEREL" Value="POSSIBLY RELATED"/>
      <ItemData ItemOID="IT.AE.AESTDTC" Value="2003-12-25"/>
      <ItemData ItemOID="IT.AE.AESTDY" Value="87"/>
      <ItemData ItemOID="IT.AE.AEENRF" Value="AFTER"/>
    </ItemGroupData>
    <ItemGroupData ItemGroupOID="IG.AE" data:ItemGroupDataSeq="13">
      <ItemData ItemOID="IT.STUDYID" Value="CDISC01"/>
      <ItemData ItemOID="IT.AE.DOMAIN" Value="AE"/>
      <ItemData ItemOID="IT.USUBJID" Value="CDISC01.200001"/>
      <ItemData ItemOID="IT.AE.AESEQ" Value="5"/>
      <ItemData ItemOID="IT.AE.AESPID" Value="2"/>
      <ItemData ItemOID="IT.AE.AETERM" Value="NAUSEA INTERMITTENT"/>
      <ItemData ItemOID="IT.AE.AEDECOD" Value="Nausea"/>
      <ItemData ItemOID="IT.AE.AEBODSYS" Value="Gastrointestinal disorders"/>
      <ItemData ItemOID="IT.AE.AESEV" Value="SEVERE"/>
      <ItemData ItemOID="IT.AE.AESER" Value="N"/>
      <ItemData ItemOID="IT.AE.AEACN" Value="DOSE NOT CHANGED"/>
      <ItemData ItemOID="IT.AE.AEREL" Value="POSSIBLY RELATED"/>
      <ItemData ItemOID="IT.AE.AESTDTC" Value="2003-10-16"/>
      <ItemData ItemOID="IT.AE.AEENDTC" Value="2003-10-20"/>
      <ItemData ItemOID="IT.AE.AESTDY" Value="17"/>
      <ItemData ItemOID="IT.AE.AEENDY" Value="21"/>
    </ItemGroupData>
    <ItemGroupData ItemGroupOID="IG.AE" data:ItemGroupDataSeq="14">
      <ItemData ItemOID="IT.STUDYID" Value="CDISC01"/>
      <ItemData ItemOID="IT.AE.DOMAIN" Value="AE"/>
      <ItemData ItemOID="IT.USUBJID" Value="CDISC01.200002"/>
      <ItemData ItemOID="IT.AE.AESEQ" Value="1"/>
      <ItemData ItemOID="IT.AE.AESPID" Value="3"/>
      <ItemData ItemOID="IT.AE.AETERM" Value="LIGHTHEADEDNESS"/>
      <ItemData ItemOID="IT.AE.AEDECOD" Value="Dizziness"/>
      <ItemData ItemOID="IT.AE.AEBODSYS" Value="Nervous system disorders"/>
      <ItemData ItemOID="IT.AE.AESEV" Value="MILD"/>
      <ItemData ItemOID="IT.AE.AESER" Value="N"/>
      <ItemData ItemOID="IT.AE.AEACN" Value="DOSE NOT CHANGED"/>
      <ItemData ItemOID="IT.AE.AEREL" Value="NOT RELATED"/>
      <ItemData ItemOID="IT.AE.AESTDTC" Value="2004-02-26"/>
      <ItemData ItemOID="IT.AE.AEENDTC" Value="2004-02-26"/>
      <ItemData ItemOID="IT.AE.AESTDY" Value="140"/>
      <ItemData ItemOID="IT.AE.AEENDY" Value="140"/>
    </ItemGroupData>
    <ItemGroupData ItemGroupOID="IG.AE" data:ItemGroupDataSeq="15">
      <ItemData ItemOID="IT.STUDYID" Value="CDISC01"/>
      <ItemData ItemOID="IT.AE.DOMAIN" Value="AE"/>
      <ItemData ItemOID="IT.USUBJID" Value="CDISC01.200002"/>
      <ItemData ItemOID="IT.AE.AESEQ" Value="2"/>
      <ItemData ItemOID="IT.AE.AESPID" Value="1"/>
      <ItemData ItemOID="IT.AE.AETERM" Value="MUSCLE SPASMS"/>
      <ItemData ItemOID="IT.AE.AEDECOD" Value="Muscle spasms"/>
      <ItemData ItemOID="IT.AE.AEBODSYS" Value="Musculoskeletal and connective tissue disorders"/>
      <ItemData ItemOID="IT.AE.AESEV" Value="MILD"/>
      <ItemData ItemOID="IT.AE.AESER" Value="N"/>
      <ItemData ItemOID="IT.AE.AEACN" Value="DOSE NOT CHANGED"/>
      <ItemData ItemOID="IT.AE.AEREL" Value="NOT RELATED"/>
      <ItemData ItemOID="IT.AE.AESTDTC" Value="2004-01-05"/>
      <ItemData ItemOID="IT.AE.AESTDY" Value="88"/>
      <ItemData ItemOID="IT.AE.AEENRF" Value="AFTER"/>
    </ItemGroupData>
    <ItemGroupData ItemGroupOID="IG.AE" data:ItemGroupDataSeq="16">
      <ItemData ItemOID="IT.STUDYID" Value="CDISC01"/>
      <ItemData ItemOID="IT.AE.DOMAIN" Value="AE"/>
      <ItemData ItemOID="IT.USUBJID" Value="CDISC01.200002"/>
      <ItemData ItemOID="IT.AE.AESEQ" Value="3"/>
      <ItemData ItemOID="IT.AE.AESPID" Value="2"/>
      <ItemData ItemOID="IT.AE.AETERM" Value="PALPITATIONS INTERMITTENT"/>
      <ItemData ItemOID="IT.AE.AEDECOD" Value="Palpitations"/>
      <ItemData ItemOID="IT.AE.AEBODSYS" Value="Cardiac disorders"/>
      <ItemData ItemOID="IT.AE.AESEV" Value="MILD"/>
      <ItemData ItemOID="IT.AE.AESER" Value="N"/>
      <ItemData ItemOID="IT.AE.AEACN" Value="DOSE NOT CHANGED"/>
      <ItemData ItemOID="IT.AE.AEREL" Value="NOT RELATED"/>
      <ItemData ItemOID="IT.AE.AESTDTC" Value="2004-01-05"/>
      <ItemData ItemOID="IT.AE.AESTDY" Value="88"/>
      <ItemData ItemOID="IT.AE.AEENRF" Value="AFTER"/>
    </ItemGroupData>
  </ClinicalData>
</ODM>
