<?xml version="1.0" encoding="UTF-8"?>
<!-- Dataset-XML: Untyped Data Example  --> 
<!-- Built from the SAS XPT files published with the SDTM-MSG (SDTM Metadata Submission Guidelines) V1 --> 
<!-- Prepared by Marcelina Hungria / DIcore Group, LLC --> 
<ODM
  xmlns="http://www.cdisc.org/ns/odm/v1.3"
  xmlns:xlink="http://www.w3.org/1999/xlink" 
  xmlns:data="http://www.cdisc.org/ns/Dataset-XML/v1.0"
  FileType="Snapshot"
  ODMVersion="1.3.2"
  data:DatasetXMLVersion="1.0.0"
  FileOID="www.cdisc.org.Studycdisc01-Define-XML_2.0.0(IG.PE)"
  PriorFileOID="www.cdisc.org.Studycdisc01-Define-XML_2.0.0"
  Originator="CDISC Dataset-XML Team"
  CreationDateTime="2014-04-01T09:31:03">
  <ClinicalData
    StudyOID="cdisc01"
    MetaDataVersionOID="MDV.CDISC01.SDTMIG.3.1.2.SDTM.1.2">
    <!-- Dataset (PE) -->
    <ItemGroupData ItemGroupOID="IG.PE" data:ItemGroupDataSeq="1">
      <ItemData ItemOID="IT.STUDYID" Value="CDISC01"/>
      <ItemData ItemOID="IT.PE.DOMAIN" Value="PE"/>
      <ItemData ItemOID="IT.USUBJID" Value="CDISC01.100008"/>
      <ItemData ItemOID="IT.PE.PESEQ" Value="1"/>
      <ItemData ItemOID="IT.PE.PETESTCD" Value="PE01"/>
      <ItemData ItemOID="IT.PE.PETEST" Value="Appearance/Skin"/>
      <ItemData ItemOID="IT.PE.PEORRES" Value="NORMAL"/>
      <ItemData ItemOID="IT.PE.PESTRESC" Value="NORMAL"/>
      <ItemData ItemOID="IT.PE.VISITNUM" Value="1"/>
      <ItemData ItemOID="IT.PE.VISIT" Value="SCREEN"/>
      <ItemData ItemOID="IT.PE.VISITDY" Value="-13"/>
      <ItemData ItemOID="IT.PE.PEDTC" Value="2003-04-15"/>
      <ItemData ItemOID="IT.PE.PEDY" Value="-14"/>
    </ItemGroupData>
    <ItemGroupData ItemGroupOID="IG.PE" data:ItemGroupDataSeq="2">
      <ItemData ItemOID="IT.STUDYID" Value="CDISC01"/>
      <ItemData ItemOID="IT.PE.DOMAIN" Value="PE"/>
      <ItemData ItemOID="IT.USUBJID" Value="CDISC01.100008"/>
      <ItemData ItemOID="IT.PE.PESEQ" Value="2"/>
      <ItemData ItemOID="IT.PE.PETESTCD" Value="PE01"/>
      <ItemData ItemOID="IT.PE.PETEST" Value="Appearance/Skin"/>
      <ItemData ItemOID="IT.PE.PEORRES" Value="NORMAL"/>
      <ItemData ItemOID="IT.PE.PESTRESC" Value="NORMAL"/>
      <ItemData ItemOID="IT.PE.VISITNUM" Value="10"/>
      <ItemData ItemOID="IT.PE.VISIT" Value="WEEK 24"/>
      <ItemData ItemOID="IT.PE.VISITDY" Value="169"/>
      <ItemData ItemOID="IT.PE.PEDTC" Value="2003-10-13"/>
      <ItemData ItemOID="IT.PE.PEDY" Value="168"/>
    </ItemGroupData>
    <ItemGroupData ItemGroupOID="IG.PE" data:ItemGroupDataSeq="3">
      <ItemData ItemOID="IT.STUDYID" Value="CDISC01"/>
      <ItemData ItemOID="IT.PE.DOMAIN" Value="PE"/>
      <ItemData ItemOID="IT.USUBJID" Value="CDISC01.100008"/>
      <ItemData ItemOID="IT.PE.PESEQ" Value="3"/>
      <ItemData ItemOID="IT.PE.PETESTCD" Value="PE02"/>
      <ItemData ItemOID="IT.PE.PETEST" Value="Head/Neck (Including Thyroid)"/>
      <ItemData ItemOID="IT.PE.PEORRES" Value="NORMAL"/>
      <ItemData ItemOID="IT.PE.PESTRESC" Value="NORMAL"/>
      <ItemData ItemOID="IT.PE.VISITNUM" Value="1"/>
      <ItemData ItemOID="IT.PE.VISIT" Value="SCREEN"/>
      <ItemData ItemOID="IT.PE.VISITDY" Value="-13"/>
      <ItemData ItemOID="IT.PE.PEDTC" Value="2003-04-15"/>
      <ItemData ItemOID="IT.PE.PEDY" Value="-14"/>
    </ItemGroupData>
    <ItemGroupData ItemGroupOID="IG.PE" data:ItemGroupDataSeq="4">
      <ItemData ItemOID="IT.STUDYID" Value="CDISC01"/>
      <ItemData ItemOID="IT.PE.DOMAIN" Value="PE"/>
      <ItemData ItemOID="IT.USUBJID" Value="CDISC01.100008"/>
      <ItemData ItemOID="IT.PE.PESEQ" Value="4"/>
      <ItemData ItemOID="IT.PE.PETESTCD" Value="PE02"/>
      <ItemData ItemOID="IT.PE.PETEST" Value="Head/Neck (Including Thyroid)"/>
      <ItemData ItemOID="IT.PE.PEORRES" Value="NORMAL"/>
      <ItemData ItemOID="IT.PE.PESTRESC" Value="NORMAL"/>
      <ItemData ItemOID="IT.PE.VISITNUM" Value="10"/>
      <ItemData ItemOID="IT.PE.VISIT" Value="WEEK 24"/>
      <ItemData ItemOID="IT.PE.VISITDY" Value="169"/>
      <ItemData ItemOID="IT.PE.PEDTC" Value="2003-10-13"/>
      <ItemData ItemOID="IT.PE.PEDY" Value="168"/>
    </ItemGroupData>
    <ItemGroupData ItemGroupOID="IG.PE" data:ItemGroupDataSeq="5">
      <ItemData ItemOID="IT.STUDYID" Value="CDISC01"/>
      <ItemData ItemOID="IT.PE.DOMAIN" Value="PE"/>
      <ItemData ItemOID="IT.USUBJID" Value="CDISC01.100008"/>
      <ItemData ItemOID="IT.PE.PESEQ" Value="5"/>
      <ItemData ItemOID="IT.PE.PETESTCD" Value="PE03"/>
      <ItemData ItemOID="IT.PE.PETEST" Value="Eyes-Ears-Nose-Throat"/>
      <ItemData ItemOID="IT.PE.PEORRES" Value="NORMAL"/>
      <ItemData ItemOID="IT.PE.PESTRESC" Value="NORMAL"/>
      <ItemData ItemOID="IT.PE.VISITNUM" Value="1"/>
      <ItemData ItemOID="IT.PE.VISIT" Value="SCREEN"/>
      <ItemData ItemOID="IT.PE.VISITDY" Value="-13"/>
      <ItemData ItemOID="IT.PE.PEDTC" Value="2003-04-15"/>
      <ItemData ItemOID="IT.PE.PEDY" Value="-14"/>
    </ItemGroupData>
    <ItemGroupData ItemGroupOID="IG.PE" data:ItemGroupDataSeq="6">
      <ItemData ItemOID="IT.STUDYID" Value="CDISC01"/>
      <ItemData ItemOID="IT.PE.DOMAIN" Value="PE"/>
      <ItemData ItemOID="IT.USUBJID" Value="CDISC01.100008"/>
      <ItemData ItemOID="IT.PE.PESEQ" Value="6"/>
      <ItemData ItemOID="IT.PE.PETESTCD" Value="PE03"/>
      <ItemData ItemOID="IT.PE.PETEST" Value="Eyes-Ears-Nose-Throat"/>
      <ItemData ItemOID="IT.PE.PEORRES" Value="NORMAL"/>
      <ItemData ItemOID="IT.PE.PESTRESC" Value="NORMAL"/>
      <ItemData ItemOID="IT.PE.VISITNUM" Value="10"/>
      <ItemData ItemOID="IT.PE.VISIT" Value="WEEK 24"/>
      <ItemData ItemOID="IT.PE.VISITDY" Value="169"/>
      <ItemData ItemOID="IT.PE.PEDTC" Value="2003-10-13"/>
      <ItemData ItemOID="IT.PE.PEDY" Value="168"/>
    </ItemGroupData>
    <ItemGroupData ItemGroupOID="IG.PE" data:ItemGroupDataSeq="7">
      <ItemData ItemOID="IT.STUDYID" Value="CDISC01"/>
      <ItemData ItemOID="IT.PE.DOMAIN" Value="PE"/>
      <ItemData ItemOID="IT.USUBJID" Value="CDISC01.100008"/>
      <ItemData ItemOID="IT.PE.PESEQ" Value="7"/>
      <ItemData ItemOID="IT.PE.PETESTCD" Value="PE04"/>
      <ItemData ItemOID="IT.PE.PETEST" Value="Cardiovascular"/>
      <ItemData ItemOID="IT.PE.PEORRES" Value="NORMAL"/>
      <ItemData ItemOID="IT.PE.PESTRESC" Value="NORMAL"/>
      <ItemData ItemOID="IT.PE.VISITNUM" Value="1"/>
      <ItemData ItemOID="IT.PE.VISIT" Value="SCREEN"/>
      <ItemData ItemOID="IT.PE.VISITDY" Value="-13"/>
      <ItemData ItemOID="IT.PE.PEDTC" Value="2003-04-15"/>
      <ItemData ItemOID="IT.PE.PEDY" Value="-14"/>
    </ItemGroupData>
    <ItemGroupData ItemGroupOID="IG.PE" data:ItemGroupDataSeq="8">
      <ItemData ItemOID="IT.STUDYID" Value="CDISC01"/>
      <ItemData ItemOID="IT.PE.DOMAIN" Value="PE"/>
      <ItemData ItemOID="IT.USUBJID" Value="CDISC01.100008"/>
      <ItemData ItemOID="IT.PE.PESEQ" Value="8"/>
      <ItemData ItemOID="IT.PE.PETESTCD" Value="PE04"/>
      <ItemData ItemOID="IT.PE.PETEST" Value="Cardiovascular"/>
      <ItemData ItemOID="IT.PE.PEORRES" Value="NORMAL"/>
      <ItemData ItemOID="IT.PE.PESTRESC" Value="NORMAL"/>
      <ItemData ItemOID="IT.PE.VISITNUM" Value="10"/>
      <ItemData ItemOID="IT.PE.VISIT" Value="WEEK 24"/>
      <ItemData ItemOID="IT.PE.VISITDY" Value="169"/>
      <ItemData ItemOID="IT.PE.PEDTC" Value="2003-10-13"/>
      <ItemData ItemOID="IT.PE.PEDY" Value="168"/>
    </ItemGroupData>
    <ItemGroupData ItemGroupOID="IG.PE" data:ItemGroupDataSeq="9">
      <ItemData ItemOID="IT.STUDYID" Value="CDISC01"/>
      <ItemData ItemOID="IT.PE.DOMAIN" Value="PE"/>
      <ItemData ItemOID="IT.USUBJID" Value="CDISC01.100008"/>
      <ItemData ItemOID="IT.PE.PESEQ" Value="9"/>
      <ItemData ItemOID="IT.PE.PETESTCD" Value="PE05"/>
      <ItemData ItemOID="IT.PE.PETEST" Value="Pulmonary"/>
      <ItemData ItemOID="IT.PE.PEORRES" Value="NORMAL"/>
      <ItemData ItemOID="IT.PE.PESTRESC" Value="NORMAL"/>
      <ItemData ItemOID="IT.PE.VISITNUM" Value="1"/>
      <ItemData ItemOID="IT.PE.VISIT" Value="SCREEN"/>
      <ItemData ItemOID="IT.PE.VISITDY" Value="-13"/>
      <ItemData ItemOID="IT.PE.PEDTC" Value="2003-04-15"/>
      <ItemData ItemOID="IT.PE.PEDY" Value="-14"/>
    </ItemGroupData>
    <ItemGroupData ItemGroupOID="IG.PE" data:ItemGroupDataSeq="10">
      <ItemData ItemOID="IT.STUDYID" Value="CDISC01"/>
      <ItemData ItemOID="IT.PE.DOMAIN" Value="PE"/>
      <ItemData ItemOID="IT.USUBJID" Value="CDISC01.100008"/>
      <ItemData ItemOID="IT.PE.PESEQ" Value="10"/>
      <ItemData ItemOID="IT.PE.PETESTCD" Value="PE05"/>
      <ItemData ItemOID="IT.PE.PETEST" Value="Pulmonary"/>
      <ItemData ItemOID="IT.PE.PEORRES" Value="NORMAL"/>
      <ItemData ItemOID="IT.PE.PESTRESC" Value="NORMAL"/>
      <ItemData ItemOID="IT.PE.VISITNUM" Value="10"/>
      <ItemData ItemOID="IT.PE.VISIT" Value="WEEK 24"/>
      <ItemData ItemOID="IT.PE.VISITDY" Value="169"/>
      <ItemData ItemOID="IT.PE.PEDTC" Value="2003-10-13"/>
      <ItemData ItemOID="IT.PE.PEDY" Value="168"/>
    </ItemGroupData>
    <ItemGroupData ItemGroupOID="IG.PE" data:ItemGroupDataSeq="11">
      <ItemData ItemOID="IT.STUDYID" Value="CDISC01"/>
      <ItemData ItemOID="IT.PE.DOMAIN" Value="PE"/>
      <ItemData ItemOID="IT.USUBJID" Value="CDISC01.100008"/>
      <ItemData ItemOID="IT.PE.PESEQ" Value="11"/>
      <ItemData ItemOID="IT.PE.PETESTCD" Value="PE06"/>
      <ItemData ItemOID="IT.PE.PETEST" Value="Abdomen"/>
      <ItemData ItemOID="IT.PE.PEORRES" Value="NORMAL"/>
      <ItemData ItemOID="IT.PE.PESTRESC" Value="NORMAL"/>
      <ItemData ItemOID="IT.PE.VISITNUM" Value="1"/>
      <ItemData ItemOID="IT.PE.VISIT" Value="SCREEN"/>
      <ItemData ItemOID="IT.PE.VISITDY" Value="-13"/>
      <ItemData ItemOID="IT.PE.PEDTC" Value="2003-04-15"/>
      <ItemData ItemOID="IT.PE.PEDY" Value="-14"/>
    </ItemGroupData>
    <ItemGroupData ItemGroupOID="IG.PE" data:ItemGroupDataSeq="12">
      <ItemData ItemOID="IT.STUDYID" Value="CDISC01"/>
      <ItemData ItemOID="IT.PE.DOMAIN" Value="PE"/>
      <ItemData ItemOID="IT.USUBJID" Value="CDISC01.100008"/>
      <ItemData ItemOID="IT.PE.PESEQ" Value="12"/>
      <ItemData ItemOID="IT.PE.PETESTCD" Value="PE06"/>
      <ItemData ItemOID="IT.PE.PETEST" Value="Abdomen"/>
      <ItemData ItemOID="IT.PE.PEORRES" Value="NORMAL"/>
      <ItemData ItemOID="IT.PE.PESTRESC" Value="NORMAL"/>
      <ItemData ItemOID="IT.PE.VISITNUM" Value="10"/>
      <ItemData ItemOID="IT.PE.VISIT" Value="WEEK 24"/>
      <ItemData ItemOID="IT.PE.VISITDY" Value="169"/>
      <ItemData ItemOID="IT.PE.PEDTC" Value="2003-10-13"/>
      <ItemData ItemOID="IT.PE.PEDY" Value="168"/>
    </ItemGroupData>
    <ItemGroupData ItemGroupOID="IG.PE" data:ItemGroupDataSeq="13">
      <ItemData ItemOID="IT.STUDYID" Value="CDISC01"/>
      <ItemData ItemOID="IT.PE.DOMAIN" Value="PE"/>
      <ItemData ItemOID="IT.USUBJID" Value="CDISC01.100008"/>
      <ItemData ItemOID="IT.PE.PESEQ" Value="13"/>
      <ItemData ItemOID="IT.PE.PETESTCD" Value="PE07"/>
      <ItemData ItemOID="IT.PE.PETEST" Value="Neurological"/>
      <ItemData ItemOID="IT.PE.PEORRES" Value="NORMAL"/>
      <ItemData ItemOID="IT.PE.PESTRESC" Value="NORMAL"/>
      <ItemData ItemOID="IT.PE.VISITNUM" Value="1"/>
      <ItemData ItemOID="IT.PE.VISIT" Value="SCREEN"/>
      <ItemData ItemOID="IT.PE.VISITDY" Value="-13"/>
      <ItemData ItemOID="IT.PE.PEDTC" Value="2003-04-15"/>
      <ItemData ItemOID="IT.PE.PEDY" Value="-14"/>
    </ItemGroupData>
    <ItemGroupData ItemGroupOID="IG.PE" data:ItemGroupDataSeq="14">
      <ItemData ItemOID="IT.STUDYID" Value="CDISC01"/>
      <ItemData ItemOID="IT.PE.DOMAIN" Value="PE"/>
      <ItemData ItemOID="IT.USUBJID" Value="CDISC01.100008"/>
      <ItemData ItemOID="IT.PE.PESEQ" Value="14"/>
      <ItemData ItemOID="IT.PE.PETESTCD" Value="PE07"/>
      <ItemData ItemOID="IT.PE.PETEST" Value="Neurological"/>
      <ItemData ItemOID="IT.PE.PEORRES" Value="NORMAL"/>
      <ItemData ItemOID="IT.PE.PESTRESC" Value="NORMAL"/>
      <ItemData ItemOID="IT.PE.VISITNUM" Value="10"/>
      <ItemData ItemOID="IT.PE.VISIT" Value="WEEK 24"/>
      <ItemData ItemOID="IT.PE.VISITDY" Value="169"/>
      <ItemData ItemOID="IT.PE.PEDTC" Value="2003-10-13"/>
      <ItemData ItemOID="IT.PE.PEDY" Value="168"/>
    </ItemGroupData>
    <ItemGroupData ItemGroupOID="IG.PE" data:ItemGroupDataSeq="15">
      <ItemData ItemOID="IT.STUDYID" Value="CDISC01"/>
      <ItemData ItemOID="IT.PE.DOMAIN" Value="PE"/>
      <ItemData ItemOID="IT.USUBJID" Value="CDISC01.100008"/>
      <ItemData ItemOID="IT.PE.PESEQ" Value="15"/>
      <ItemData ItemOID="IT.PE.PETESTCD" Value="PE08"/>
      <ItemData ItemOID="IT.PE.PETEST" Value="Musculoskeletal"/>
      <ItemData ItemOID="IT.PE.PEORRES" Value="NORMAL"/>
      <ItemData ItemOID="IT.PE.PESTRESC" Value="NORMAL"/>
      <ItemData ItemOID="IT.PE.VISITNUM" Value="1"/>
      <ItemData ItemOID="IT.PE.VISIT" Value="SCREEN"/>
      <ItemData ItemOID="IT.PE.VISITDY" Value="-13"/>
      <ItemData ItemOID="IT.PE.PEDTC" Value="2003-04-15"/>
      <ItemData ItemOID="IT.PE.PEDY" Value="-14"/>
    </ItemGroupData>
    <ItemGroupData ItemGroupOID="IG.PE" data:ItemGroupDataSeq="16">
      <ItemData ItemOID="IT.STUDYID" Value="CDISC01"/>
      <ItemData ItemOID="IT.PE.DOMAIN" Value="PE"/>
      <ItemData ItemOID="IT.USUBJID" Value="CDISC01.100008"/>
      <ItemData ItemOID="IT.PE.PESEQ" Value="16"/>
      <ItemData ItemOID="IT.PE.PETESTCD" Value="PE08"/>
      <ItemData ItemOID="IT.PE.PETEST" Value="Musculoskeletal"/>
      <ItemData ItemOID="IT.PE.PEORRES" Value="NORMAL"/>
      <ItemData ItemOID="IT.PE.PESTRESC" Value="NORMAL"/>
      <ItemData ItemOID="IT.PE.VISITNUM" Value="10"/>
      <ItemData ItemOID="IT.PE.VISIT" Value="WEEK 24"/>
      <ItemData ItemOID="IT.PE.VISITDY" Value="169"/>
      <ItemData ItemOID="IT.PE.PEDTC" Value="2003-10-13"/>
      <ItemData ItemOID="IT.PE.PEDY" Value="168"/>
    </ItemGroupData>
    <ItemGroupData ItemGroupOID="IG.PE" data:ItemGroupDataSeq="17">
      <ItemData ItemOID="IT.STUDYID" Value="CDISC01"/>
      <ItemData ItemOID="IT.PE.DOMAIN" Value="PE"/>
      <ItemData ItemOID="IT.USUBJID" Value="CDISC01.100014"/>
      <ItemData ItemOID="IT.PE.PESEQ" Value="1"/>
      <ItemData ItemOID="IT.PE.PETESTCD" Value="PE01"/>
      <ItemData ItemOID="IT.PE.PETEST" Value="Appearance/Skin"/>
      <ItemData ItemOID="IT.PE.PEORRES" Value="NORMAL"/>
      <ItemData ItemOID="IT.PE.PESTRESC" Value="NORMAL"/>
      <ItemData ItemOID="IT.PE.VISITNUM" Value="1"/>
      <ItemData ItemOID="IT.PE.VISIT" Value="SCREEN"/>
      <ItemData ItemOID="IT.PE.VISITDY" Value="-13"/>
      <ItemData ItemOID="IT.PE.PEDTC" Value="2003-10-06"/>
      <ItemData ItemOID="IT.PE.PEDY" Value="-9"/>
    </ItemGroupData>
    <ItemGroupData ItemGroupOID="IG.PE" data:ItemGroupDataSeq="18">
      <ItemData ItemOID="IT.STUDYID" Value="CDISC01"/>
      <ItemData ItemOID="IT.PE.DOMAIN" Value="PE"/>
      <ItemData ItemOID="IT.USUBJID" Value="CDISC01.100014"/>
      <ItemData ItemOID="IT.PE.PESEQ" Value="2"/>
      <ItemData ItemOID="IT.PE.PETESTCD" Value="PE01"/>
      <ItemData ItemOID="IT.PE.PETEST" Value="Appearance/Skin"/>
      <ItemData ItemOID="IT.PE.PEORRES" Value="NORMAL"/>
      <ItemData ItemOID="IT.PE.PESTRESC" Value="NORMAL"/>
      <ItemData ItemOID="IT.PE.VISITNUM" Value="10"/>
      <ItemData ItemOID="IT.PE.VISIT" Value="WEEK 24"/>
      <ItemData ItemOID="IT.PE.VISITDY" Value="169"/>
      <ItemData ItemOID="IT.PE.PEDTC" Value="2004-03-30"/>
      <ItemData ItemOID="IT.PE.PEDY" Value="168"/>
    </ItemGroupData>
    <ItemGroupData ItemGroupOID="IG.PE" data:ItemGroupDataSeq="19">
      <ItemData ItemOID="IT.STUDYID" Value="CDISC01"/>
      <ItemData ItemOID="IT.PE.DOMAIN" Value="PE"/>
      <ItemData ItemOID="IT.USUBJID" Value="CDISC01.100014"/>
      <ItemData ItemOID="IT.PE.PESEQ" Value="3"/>
      <ItemData ItemOID="IT.PE.PETESTCD" Value="PE02"/>
      <ItemData ItemOID="IT.PE.PETEST" Value="Head/Neck (Including Thyroid)"/>
      <ItemData ItemOID="IT.PE.PEORRES" Value="NORMAL"/>
      <ItemData ItemOID="IT.PE.PESTRESC" Value="NORMAL"/>
      <ItemData ItemOID="IT.PE.VISITNUM" Value="1"/>
      <ItemData ItemOID="IT.PE.VISIT" Value="SCREEN"/>
      <ItemData ItemOID="IT.PE.VISITDY" Value="-13"/>
      <ItemData ItemOID="IT.PE.PEDTC" Value="2003-10-06"/>
      <ItemData ItemOID="IT.PE.PEDY" Value="-9"/>
    </ItemGroupData>
    <ItemGroupData ItemGroupOID="IG.PE" data:ItemGroupDataSeq="20">
      <ItemData ItemOID="IT.STUDYID" Value="CDISC01"/>
      <ItemData ItemOID="IT.PE.DOMAIN" Value="PE"/>
      <ItemData ItemOID="IT.USUBJID" Value="CDISC01.100014"/>
      <ItemData ItemOID="IT.PE.PESEQ" Value="4"/>
      <ItemData ItemOID="IT.PE.PETESTCD" Value="PE02"/>
      <ItemData ItemOID="IT.PE.PETEST" Value="Head/Neck (Including Thyroid)"/>
      <ItemData ItemOID="IT.PE.PEORRES" Value="NORMAL"/>
      <ItemData ItemOID="IT.PE.PESTRESC" Value="NORMAL"/>
      <ItemData ItemOID="IT.PE.VISITNUM" Value="10"/>
      <ItemData ItemOID="IT.PE.VISIT" Value="WEEK 24"/>
      <ItemData ItemOID="IT.PE.VISITDY" Value="169"/>
      <ItemData ItemOID="IT.PE.PEDTC" Value="2004-03-30"/>
      <ItemData ItemOID="IT.PE.PEDY" Value="168"/>
    </ItemGroupData>
    <ItemGroupData ItemGroupOID="IG.PE" data:ItemGroupDataSeq="21">
      <ItemData ItemOID="IT.STUDYID" Value="CDISC01"/>
      <ItemData ItemOID="IT.PE.DOMAIN" Value="PE"/>
      <ItemData ItemOID="IT.USUBJID" Value="CDISC01.100014"/>
      <ItemData ItemOID="IT.PE.PESEQ" Value="5"/>
      <ItemData ItemOID="IT.PE.PETESTCD" Value="PE03"/>
      <ItemData ItemOID="IT.PE.PETEST" Value="Eyes-Ears-Nose-Throat"/>
      <ItemData ItemOID="IT.PE.PEORRES" Value="WEARS GLASSES"/>
      <ItemData ItemOID="IT.PE.PESTRESC" Value="WEARS GLASSES"/>
      <ItemData ItemOID="IT.PE.VISITNUM" Value="1"/>
      <ItemData ItemOID="IT.PE.VISIT" Value="SCREEN"/>
      <ItemData ItemOID="IT.PE.VISITDY" Value="-13"/>
      <ItemData ItemOID="IT.PE.PEDTC" Value="2003-10-06"/>
      <ItemData ItemOID="IT.PE.PEDY" Value="-9"/>
    </ItemGroupData>
    <ItemGroupData ItemGroupOID="IG.PE" data:ItemGroupDataSeq="22">
      <ItemData ItemOID="IT.STUDYID" Value="CDISC01"/>
      <ItemData ItemOID="IT.PE.DOMAIN" Value="PE"/>
      <ItemData ItemOID="IT.USUBJID" Value="CDISC01.100014"/>
      <ItemData ItemOID="IT.PE.PESEQ" Value="6"/>
      <ItemData ItemOID="IT.PE.PETESTCD" Value="PE03"/>
      <ItemData ItemOID="IT.PE.PETEST" Value="Eyes-Ears-Nose-Throat"/>
      <ItemData ItemOID="IT.PE.PEORRES" Value="WEARS GLASSES"/>
      <ItemData ItemOID="IT.PE.PESTRESC" Value="WEARS GLASSES"/>
      <ItemData ItemOID="IT.PE.VISITNUM" Value="10"/>
      <ItemData ItemOID="IT.PE.VISIT" Value="WEEK 24"/>
      <ItemData ItemOID="IT.PE.VISITDY" Value="169"/>
      <ItemData ItemOID="IT.PE.PEDTC" Value="2004-03-30"/>
      <ItemData ItemOID="IT.PE.PEDY" Value="168"/>
    </ItemGroupData>
    <ItemGroupData ItemGroupOID="IG.PE" data:ItemGroupDataSeq="23">
      <ItemData ItemOID="IT.STUDYID" Value="CDISC01"/>
      <ItemData ItemOID="IT.PE.DOMAIN" Value="PE"/>
      <ItemData ItemOID="IT.USUBJID" Value="CDISC01.100014"/>
      <ItemData ItemOID="IT.PE.PESEQ" Value="7"/>
      <ItemData ItemOID="IT.PE.PETESTCD" Value="PE04"/>
      <ItemData ItemOID="IT.PE.PETEST" Value="Cardiovascular"/>
      <ItemData ItemOID="IT.PE.PEORRES" Value="NORMAL"/>
      <ItemData ItemOID="IT.PE.PESTRESC" Value="NORMAL"/>
      <ItemData ItemOID="IT.PE.VISITNUM" Value="1"/>
      <ItemData ItemOID="IT.PE.VISIT" Value="SCREEN"/>
      <ItemData ItemOID="IT.PE.VISITDY" Value="-13"/>
      <ItemData ItemOID="IT.PE.PEDTC" Value="2003-10-06"/>
      <ItemData ItemOID="IT.PE.PEDY" Value="-9"/>
    </ItemGroupData>
    <ItemGroupData ItemGroupOID="IG.PE" data:ItemGroupDataSeq="24">
      <ItemData ItemOID="IT.STUDYID" Value="CDISC01"/>
      <ItemData ItemOID="IT.PE.DOMAIN" Value="PE"/>
      <ItemData ItemOID="IT.USUBJID" Value="CDISC01.100014"/>
      <ItemData ItemOID="IT.PE.PESEQ" Value="8"/>
      <ItemData ItemOID="IT.PE.PETESTCD" Value="PE04"/>
      <ItemData ItemOID="IT.PE.PETEST" Value="Cardiovascular"/>
      <ItemData ItemOID="IT.PE.PEORRES" Value="NORMAL"/>
      <ItemData ItemOID="IT.PE.PESTRESC" Value="NORMAL"/>
      <ItemData ItemOID="IT.PE.VISITNUM" Value="10"/>
      <ItemData ItemOID="IT.PE.VISIT" Value="WEEK 24"/>
      <ItemData ItemOID="IT.PE.VISITDY" Value="169"/>
      <ItemData ItemOID="IT.PE.PEDTC" Value="2004-03-30"/>
      <ItemData ItemOID="IT.PE.PEDY" Value="168"/>
    </ItemGroupData>
    <ItemGroupData ItemGroupOID="IG.PE" data:ItemGroupDataSeq="25">
      <ItemData ItemOID="IT.STUDYID" Value="CDISC01"/>
      <ItemData ItemOID="IT.PE.DOMAIN" Value="PE"/>
      <ItemData ItemOID="IT.USUBJID" Value="CDISC01.100014"/>
      <ItemData ItemOID="IT.PE.PESEQ" Value="9"/>
      <ItemData ItemOID="IT.PE.PETESTCD" Value="PE05"/>
      <ItemData ItemOID="IT.PE.PETEST" Value="Pulmonary"/>
      <ItemData ItemOID="IT.PE.PEORRES" Value="NORMAL"/>
      <ItemData ItemOID="IT.PE.PESTRESC" Value="NORMAL"/>
      <ItemData ItemOID="IT.PE.VISITNUM" Value="1"/>
      <ItemData ItemOID="IT.PE.VISIT" Value="SCREEN"/>
      <ItemData ItemOID="IT.PE.VISITDY" Value="-13"/>
      <ItemData ItemOID="IT.PE.PEDTC" Value="2003-10-06"/>
      <ItemData ItemOID="IT.PE.PEDY" Value="-9"/>
    </ItemGroupData>
    <ItemGroupData ItemGroupOID="IG.PE" data:ItemGroupDataSeq="26">
      <ItemData ItemOID="IT.STUDYID" Value="CDISC01"/>
      <ItemData ItemOID="IT.PE.DOMAIN" Value="PE"/>
      <ItemData ItemOID="IT.USUBJID" Value="CDISC01.100014"/>
      <ItemData ItemOID="IT.PE.PESEQ" Value="10"/>
      <ItemData ItemOID="IT.PE.PETESTCD" Value="PE05"/>
      <ItemData ItemOID="IT.PE.PETEST" Value="Pulmonary"/>
      <ItemData ItemOID="IT.PE.PEORRES" Value="NORMAL"/>
      <ItemData ItemOID="IT.PE.PESTRESC" Value="NORMAL"/>
      <ItemData ItemOID="IT.PE.VISITNUM" Value="10"/>
      <ItemData ItemOID="IT.PE.VISIT" Value="WEEK 24"/>
      <ItemData ItemOID="IT.PE.VISITDY" Value="169"/>
      <ItemData ItemOID="IT.PE.PEDTC" Value="2004-03-30"/>
      <ItemData ItemOID="IT.PE.PEDY" Value="168"/>
    </ItemGroupData>
    <ItemGroupData ItemGroupOID="IG.PE" data:ItemGroupDataSeq="27">
      <ItemData ItemOID="IT.STUDYID" Value="CDISC01"/>
      <ItemData ItemOID="IT.PE.DOMAIN" Value="PE"/>
      <ItemData ItemOID="IT.USUBJID" Value="CDISC01.100014"/>
      <ItemData ItemOID="IT.PE.PESEQ" Value="11"/>
      <ItemData ItemOID="IT.PE.PETESTCD" Value="PE06"/>
      <ItemData ItemOID="IT.PE.PETEST" Value="Abdomen"/>
      <ItemData ItemOID="IT.PE.PEORRES" Value="NORMAL"/>
      <ItemData ItemOID="IT.PE.PESTRESC" Value="NORMAL"/>
      <ItemData ItemOID="IT.PE.VISITNUM" Value="1"/>
      <ItemData ItemOID="IT.PE.VISIT" Value="SCREEN"/>
      <ItemData ItemOID="IT.PE.VISITDY" Value="-13"/>
      <ItemData ItemOID="IT.PE.PEDTC" Value="2003-10-06"/>
      <ItemData ItemOID="IT.PE.PEDY" Value="-9"/>
    </ItemGroupData>
    <ItemGroupData ItemGroupOID="IG.PE" data:ItemGroupDataSeq="28">
      <ItemData ItemOID="IT.STUDYID" Value="CDISC01"/>
      <ItemData ItemOID="IT.PE.DOMAIN" Value="PE"/>
      <ItemData ItemOID="IT.USUBJID" Value="CDISC01.100014"/>
      <ItemData ItemOID="IT.PE.PESEQ" Value="12"/>
      <ItemData ItemOID="IT.PE.PETESTCD" Value="PE06"/>
      <ItemData ItemOID="IT.PE.PETEST" Value="Abdomen"/>
      <ItemData ItemOID="IT.PE.PEORRES" Value="NORMAL"/>
      <ItemData ItemOID="IT.PE.PESTRESC" Value="NORMAL"/>
      <ItemData ItemOID="IT.PE.VISITNUM" Value="10"/>
      <ItemData ItemOID="IT.PE.VISIT" Value="WEEK 24"/>
      <ItemData ItemOID="IT.PE.VISITDY" Value="169"/>
      <ItemData ItemOID="IT.PE.PEDTC" Value="2004-03-30"/>
      <ItemData ItemOID="IT.PE.PEDY" Value="168"/>
    </ItemGroupData>
    <ItemGroupData ItemGroupOID="IG.PE" data:ItemGroupDataSeq="29">
      <ItemData ItemOID="IT.STUDYID" Value="CDISC01"/>
      <ItemData ItemOID="IT.PE.DOMAIN" Value="PE"/>
      <ItemData ItemOID="IT.USUBJID" Value="CDISC01.100014"/>
      <ItemData ItemOID="IT.PE.PESEQ" Value="13"/>
      <ItemData ItemOID="IT.PE.PETESTCD" Value="PE07"/>
      <ItemData ItemOID="IT.PE.PETEST" Value="Neurological"/>
      <ItemData ItemOID="IT.PE.PEORRES" Value="SLOW GAIT"/>
      <ItemData ItemOID="IT.PE.PESTRESC" Value="SLOW GAIT"/>
      <ItemData ItemOID="IT.PE.VISITNUM" Value="1"/>
      <ItemData ItemOID="IT.PE.VISIT" Value="SCREEN"/>
      <ItemData ItemOID="IT.PE.VISITDY" Value="-13"/>
      <ItemData ItemOID="IT.PE.PEDTC" Value="2003-10-06"/>
      <ItemData ItemOID="IT.PE.PEDY" Value="-9"/>
    </ItemGroupData>
    <ItemGroupData ItemGroupOID="IG.PE" data:ItemGroupDataSeq="30">
      <ItemData ItemOID="IT.STUDYID" Value="CDISC01"/>
      <ItemData ItemOID="IT.PE.DOMAIN" Value="PE"/>
      <ItemData ItemOID="IT.USUBJID" Value="CDISC01.100014"/>
      <ItemData ItemOID="IT.PE.PESEQ" Value="14"/>
      <ItemData ItemOID="IT.PE.PETESTCD" Value="PE07"/>
      <ItemData ItemOID="IT.PE.PETEST" Value="Neurological"/>
      <ItemData ItemOID="IT.PE.PEORRES" Value="SLOW GAIT"/>
      <ItemData ItemOID="IT.PE.PESTRESC" Value="SLOW GAIT"/>
      <ItemData ItemOID="IT.PE.VISITNUM" Value="10"/>
      <ItemData ItemOID="IT.PE.VISIT" Value="WEEK 24"/>
      <ItemData ItemOID="IT.PE.VISITDY" Value="169"/>
      <ItemData ItemOID="IT.PE.PEDTC" Value="2004-03-30"/>
      <ItemData ItemOID="IT.PE.PEDY" Value="168"/>
    </ItemGroupData>
    <ItemGroupData ItemGroupOID="IG.PE" data:ItemGroupDataSeq="31">
      <ItemData ItemOID="IT.STUDYID" Value="CDISC01"/>
      <ItemData ItemOID="IT.PE.DOMAIN" Value="PE"/>
      <ItemData ItemOID="IT.USUBJID" Value="CDISC01.100014"/>
      <ItemData ItemOID="IT.PE.PESEQ" Value="15"/>
      <ItemData ItemOID="IT.PE.PETESTCD" Value="PE08"/>
      <ItemData ItemOID="IT.PE.PETEST" Value="Musculoskeletal"/>
      <ItemData ItemOID="IT.PE.PEORRES" Value="NORMAL"/>
      <ItemData ItemOID="IT.PE.PESTRESC" Value="NORMAL"/>
      <ItemData ItemOID="IT.PE.VISITNUM" Value="1"/>
      <ItemData ItemOID="IT.PE.VISIT" Value="SCREEN"/>
      <ItemData ItemOID="IT.PE.VISITDY" Value="-13"/>
      <ItemData ItemOID="IT.PE.PEDTC" Value="2003-10-06"/>
      <ItemData ItemOID="IT.PE.PEDY" Value="-9"/>
    </ItemGroupData>
    <ItemGroupData ItemGroupOID="IG.PE" data:ItemGroupDataSeq="32">
      <ItemData ItemOID="IT.STUDYID" Value="CDISC01"/>
      <ItemData ItemOID="IT.PE.DOMAIN" Value="PE"/>
      <ItemData ItemOID="IT.USUBJID" Value="CDISC01.100014"/>
      <ItemData ItemOID="IT.PE.PESEQ" Value="16"/>
      <ItemData ItemOID="IT.PE.PETESTCD" Value="PE08"/>
      <ItemData ItemOID="IT.PE.PETEST" Value="Musculoskeletal"/>
      <ItemData ItemOID="IT.PE.PEORRES" Value="NORMAL"/>
      <ItemData ItemOID="IT.PE.PESTRESC" Value="NORMAL"/>
      <ItemData ItemOID="IT.PE.VISITNUM" Value="10"/>
      <ItemData ItemOID="IT.PE.VISIT" Value="WEEK 24"/>
      <ItemData ItemOID="IT.PE.VISITDY" Value="169"/>
      <ItemData ItemOID="IT.PE.PEDTC" Value="2004-03-30"/>
      <ItemData ItemOID="IT.PE.PEDY" Value="168"/>
    </ItemGroupData>
    <ItemGroupData ItemGroupOID="IG.PE" data:ItemGroupDataSeq="33">
      <ItemData ItemOID="IT.STUDYID" Value="CDISC01"/>
      <ItemData ItemOID="IT.PE.DOMAIN" Value="PE"/>
      <ItemData ItemOID="IT.USUBJID" Value="CDISC01.200001"/>
      <ItemData ItemOID="IT.PE.PESEQ" Value="1"/>
      <ItemData ItemOID="IT.PE.PETESTCD" Value="PE01"/>
      <ItemData ItemOID="IT.PE.PETEST" Value="Appearance/Skin"/>
      <ItemData ItemOID="IT.PE.PEORRES" Value="NORMAL"/>
      <ItemData ItemOID="IT.PE.PESTRESC" Value="NORMAL"/>
      <ItemData ItemOID="IT.PE.VISITNUM" Value="1"/>
      <ItemData ItemOID="IT.PE.VISIT" Value="SCREEN"/>
      <ItemData ItemOID="IT.PE.VISITDY" Value="-13"/>
      <ItemData ItemOID="IT.PE.PEDTC" Value="2003-09-09"/>
      <ItemData ItemOID="IT.PE.PEDY" Value="-21"/>
    </ItemGroupData>
    <ItemGroupData ItemGroupOID="IG.PE" data:ItemGroupDataSeq="34">
      <ItemData ItemOID="IT.STUDYID" Value="CDISC01"/>
      <ItemData ItemOID="IT.PE.DOMAIN" Value="PE"/>
      <ItemData ItemOID="IT.USUBJID" Value="CDISC01.200001"/>
      <ItemData ItemOID="IT.PE.PESEQ" Value="2"/>
      <ItemData ItemOID="IT.PE.PETESTCD" Value="PE01"/>
      <ItemData ItemOID="IT.PE.PETEST" Value="Appearance/Skin"/>
      <ItemData ItemOID="IT.PE.PEORRES" Value="NORMAL"/>
      <ItemData ItemOID="IT.PE.PESTRESC" Value="NORMAL"/>
      <ItemData ItemOID="IT.PE.VISITNUM" Value="10"/>
      <ItemData ItemOID="IT.PE.VISIT" Value="WEEK 24"/>
      <ItemData ItemOID="IT.PE.VISITDY" Value="169"/>
      <ItemData ItemOID="IT.PE.PEDTC" Value="2004-02-02"/>
      <ItemData ItemOID="IT.PE.PEDY" Value="126"/>
    </ItemGroupData>
    <ItemGroupData ItemGroupOID="IG.PE" data:ItemGroupDataSeq="35">
      <ItemData ItemOID="IT.STUDYID" Value="CDISC01"/>
      <ItemData ItemOID="IT.PE.DOMAIN" Value="PE"/>
      <ItemData ItemOID="IT.USUBJID" Value="CDISC01.200001"/>
      <ItemData ItemOID="IT.PE.PESEQ" Value="3"/>
      <ItemData ItemOID="IT.PE.PETESTCD" Value="PE02"/>
      <ItemData ItemOID="IT.PE.PETEST" Value="Head/Neck (Including Thyroid)"/>
      <ItemData ItemOID="IT.PE.PEORRES" Value="NORMAL"/>
      <ItemData ItemOID="IT.PE.PESTRESC" Value="NORMAL"/>
      <ItemData ItemOID="IT.PE.VISITNUM" Value="1"/>
      <ItemData ItemOID="IT.PE.VISIT" Value="SCREEN"/>
      <ItemData ItemOID="IT.PE.VISITDY" Value="-13"/>
      <ItemData ItemOID="IT.PE.PEDTC" Value="2003-09-09"/>
      <ItemData ItemOID="IT.PE.PEDY" Value="-21"/>
    </ItemGroupData>
    <ItemGroupData ItemGroupOID="IG.PE" data:ItemGroupDataSeq="36">
      <ItemData ItemOID="IT.STUDYID" Value="CDISC01"/>
      <ItemData ItemOID="IT.PE.DOMAIN" Value="PE"/>
      <ItemData ItemOID="IT.USUBJID" Value="CDISC01.200001"/>
      <ItemData ItemOID="IT.PE.PESEQ" Value="4"/>
      <ItemData ItemOID="IT.PE.PETESTCD" Value="PE02"/>
      <ItemData ItemOID="IT.PE.PETEST" Value="Head/Neck (Including Thyroid)"/>
      <ItemData ItemOID="IT.PE.PEORRES" Value="NORMAL"/>
      <ItemData ItemOID="IT.PE.PESTRESC" Value="NORMAL"/>
      <ItemData ItemOID="IT.PE.VISITNUM" Value="10"/>
      <ItemData ItemOID="IT.PE.VISIT" Value="WEEK 24"/>
      <ItemData ItemOID="IT.PE.VISITDY" Value="169"/>
      <ItemData ItemOID="IT.PE.PEDTC" Value="2004-02-02"/>
      <ItemData ItemOID="IT.PE.PEDY" Value="126"/>
    </ItemGroupData>
    <ItemGroupData ItemGroupOID="IG.PE" data:ItemGroupDataSeq="37">
      <ItemData ItemOID="IT.STUDYID" Value="CDISC01"/>
      <ItemData ItemOID="IT.PE.DOMAIN" Value="PE"/>
      <ItemData ItemOID="IT.USUBJID" Value="CDISC01.200001"/>
      <ItemData ItemOID="IT.PE.PESEQ" Value="5"/>
      <ItemData ItemOID="IT.PE.PETESTCD" Value="PE03"/>
      <ItemData ItemOID="IT.PE.PETEST" Value="Eyes-Ears-Nose-Throat"/>
      <ItemData ItemOID="IT.PE.PEORRES" Value="NORMAL"/>
      <ItemData ItemOID="IT.PE.PESTRESC" Value="NORMAL"/>
      <ItemData ItemOID="IT.PE.VISITNUM" Value="1"/>
      <ItemData ItemOID="IT.PE.VISIT" Value="SCREEN"/>
      <ItemData ItemOID="IT.PE.VISITDY" Value="-13"/>
      <ItemData ItemOID="IT.PE.PEDTC" Value="2003-09-09"/>
      <ItemData ItemOID="IT.PE.PEDY" Value="-21"/>
    </ItemGroupData>
    <ItemGroupData ItemGroupOID="IG.PE" data:ItemGroupDataSeq="38">
      <ItemData ItemOID="IT.STUDYID" Value="CDISC01"/>
      <ItemData ItemOID="IT.PE.DOMAIN" Value="PE"/>
      <ItemData ItemOID="IT.USUBJID" Value="CDISC01.200001"/>
      <ItemData ItemOID="IT.PE.PESEQ" Value="6"/>
      <ItemData ItemOID="IT.PE.PETESTCD" Value="PE03"/>
      <ItemData ItemOID="IT.PE.PETEST" Value="Eyes-Ears-Nose-Throat"/>
      <ItemData ItemOID="IT.PE.PEORRES" Value="NORMAL"/>
      <ItemData ItemOID="IT.PE.PESTRESC" Value="NORMAL"/>
      <ItemData ItemOID="IT.PE.VISITNUM" Value="10"/>
      <ItemData ItemOID="IT.PE.VISIT" Value="WEEK 24"/>
      <ItemData ItemOID="IT.PE.VISITDY" Value="169"/>
      <ItemData ItemOID="IT.PE.PEDTC" Value="2004-02-02"/>
      <ItemData ItemOID="IT.PE.PEDY" Value="126"/>
    </ItemGroupData>
    <ItemGroupData ItemGroupOID="IG.PE" data:ItemGroupDataSeq="39">
      <ItemData ItemOID="IT.STUDYID" Value="CDISC01"/>
      <ItemData ItemOID="IT.PE.DOMAIN" Value="PE"/>
      <ItemData ItemOID="IT.USUBJID" Value="CDISC01.200001"/>
      <ItemData ItemOID="IT.PE.PESEQ" Value="7"/>
      <ItemData ItemOID="IT.PE.PETESTCD" Value="PE04"/>
      <ItemData ItemOID="IT.PE.PETEST" Value="Cardiovascular"/>
      <ItemData ItemOID="IT.PE.PEORRES" Value="NORMAL"/>
      <ItemData ItemOID="IT.PE.PESTRESC" Value="NORMAL"/>
      <ItemData ItemOID="IT.PE.VISITNUM" Value="1"/>
      <ItemData ItemOID="IT.PE.VISIT" Value="SCREEN"/>
      <ItemData ItemOID="IT.PE.VISITDY" Value="-13"/>
      <ItemData ItemOID="IT.PE.PEDTC" Value="2003-09-09"/>
      <ItemData ItemOID="IT.PE.PEDY" Value="-21"/>
    </ItemGroupData>
    <ItemGroupData ItemGroupOID="IG.PE" data:ItemGroupDataSeq="40">
      <ItemData ItemOID="IT.STUDYID" Value="CDISC01"/>
      <ItemData ItemOID="IT.PE.DOMAIN" Value="PE"/>
      <ItemData ItemOID="IT.USUBJID" Value="CDISC01.200001"/>
      <ItemData ItemOID="IT.PE.PESEQ" Value="8"/>
      <ItemData ItemOID="IT.PE.PETESTCD" Value="PE04"/>
      <ItemData ItemOID="IT.PE.PETEST" Value="Cardiovascular"/>
      <ItemData ItemOID="IT.PE.PEORRES" Value="NORMAL"/>
      <ItemData ItemOID="IT.PE.PESTRESC" Value="NORMAL"/>
      <ItemData ItemOID="IT.PE.VISITNUM" Value="10"/>
      <ItemData ItemOID="IT.PE.VISIT" Value="WEEK 24"/>
      <ItemData ItemOID="IT.PE.VISITDY" Value="169"/>
      <ItemData ItemOID="IT.PE.PEDTC" Value="2004-02-02"/>
      <ItemData ItemOID="IT.PE.PEDY" Value="126"/>
    </ItemGroupData>
    <ItemGroupData ItemGroupOID="IG.PE" data:ItemGroupDataSeq="41">
      <ItemData ItemOID="IT.STUDYID" Value="CDISC01"/>
      <ItemData ItemOID="IT.PE.DOMAIN" Value="PE"/>
      <ItemData ItemOID="IT.USUBJID" Value="CDISC01.200001"/>
      <ItemData ItemOID="IT.PE.PESEQ" Value="9"/>
      <ItemData ItemOID="IT.PE.PETESTCD" Value="PE05"/>
      <ItemData ItemOID="IT.PE.PETEST" Value="Pulmonary"/>
      <ItemData ItemOID="IT.PE.PEORRES" Value="NORMAL"/>
      <ItemData ItemOID="IT.PE.PESTRESC" Value="NORMAL"/>
      <ItemData ItemOID="IT.PE.VISITNUM" Value="1"/>
      <ItemData ItemOID="IT.PE.VISIT" Value="SCREEN"/>
      <ItemData ItemOID="IT.PE.VISITDY" Value="-13"/>
      <ItemData ItemOID="IT.PE.PEDTC" Value="2003-09-09"/>
      <ItemData ItemOID="IT.PE.PEDY" Value="-21"/>
    </ItemGroupData>
    <ItemGroupData ItemGroupOID="IG.PE" data:ItemGroupDataSeq="42">
      <ItemData ItemOID="IT.STUDYID" Value="CDISC01"/>
      <ItemData ItemOID="IT.PE.DOMAIN" Value="PE"/>
      <ItemData ItemOID="IT.USUBJID" Value="CDISC01.200001"/>
      <ItemData ItemOID="IT.PE.PESEQ" Value="10"/>
      <ItemData ItemOID="IT.PE.PETESTCD" Value="PE05"/>
      <ItemData ItemOID="IT.PE.PETEST" Value="Pulmonary"/>
      <ItemData ItemOID="IT.PE.PEORRES" Value="NORMAL"/>
      <ItemData ItemOID="IT.PE.PESTRESC" Value="NORMAL"/>
      <ItemData ItemOID="IT.PE.VISITNUM" Value="10"/>
      <ItemData ItemOID="IT.PE.VISIT" Value="WEEK 24"/>
      <ItemData ItemOID="IT.PE.VISITDY" Value="169"/>
      <ItemData ItemOID="IT.PE.PEDTC" Value="2004-02-02"/>
      <ItemData ItemOID="IT.PE.PEDY" Value="126"/>
    </ItemGroupData>
    <ItemGroupData ItemGroupOID="IG.PE" data:ItemGroupDataSeq="43">
      <ItemData ItemOID="IT.STUDYID" Value="CDISC01"/>
      <ItemData ItemOID="IT.PE.DOMAIN" Value="PE"/>
      <ItemData ItemOID="IT.USUBJID" Value="CDISC01.200001"/>
      <ItemData ItemOID="IT.PE.PESEQ" Value="11"/>
      <ItemData ItemOID="IT.PE.PETESTCD" Value="PE06"/>
      <ItemData ItemOID="IT.PE.PETEST" Value="Abdomen"/>
      <ItemData ItemOID="IT.PE.PEORRES" Value="NORMAL"/>
      <ItemData ItemOID="IT.PE.PESTRESC" Value="NORMAL"/>
      <ItemData ItemOID="IT.PE.VISITNUM" Value="1"/>
      <ItemData ItemOID="IT.PE.VISIT" Value="SCREEN"/>
      <ItemData ItemOID="IT.PE.VISITDY" Value="-13"/>
      <ItemData ItemOID="IT.PE.PEDTC" Value="2003-09-09"/>
      <ItemData ItemOID="IT.PE.PEDY" Value="-21"/>
    </ItemGroupData>
    <ItemGroupData ItemGroupOID="IG.PE" data:ItemGroupDataSeq="44">
      <ItemData ItemOID="IT.STUDYID" Value="CDISC01"/>
      <ItemData ItemOID="IT.PE.DOMAIN" Value="PE"/>
      <ItemData ItemOID="IT.USUBJID" Value="CDISC01.200001"/>
      <ItemData ItemOID="IT.PE.PESEQ" Value="12"/>
      <ItemData ItemOID="IT.PE.PETESTCD" Value="PE06"/>
      <ItemData ItemOID="IT.PE.PETEST" Value="Abdomen"/>
      <ItemData ItemOID="IT.PE.PEORRES" Value="NORMAL"/>
      <ItemData ItemOID="IT.PE.PESTRESC" Value="NORMAL"/>
      <ItemData ItemOID="IT.PE.VISITNUM" Value="10"/>
      <ItemData ItemOID="IT.PE.VISIT" Value="WEEK 24"/>
      <ItemData ItemOID="IT.PE.VISITDY" Value="169"/>
      <ItemData ItemOID="IT.PE.PEDTC" Value="2004-02-02"/>
      <ItemData ItemOID="IT.PE.PEDY" Value="126"/>
    </ItemGroupData>
    <ItemGroupData ItemGroupOID="IG.PE" data:ItemGroupDataSeq="45">
      <ItemData ItemOID="IT.STUDYID" Value="CDISC01"/>
      <ItemData ItemOID="IT.PE.DOMAIN" Value="PE"/>
      <ItemData ItemOID="IT.USUBJID" Value="CDISC01.200001"/>
      <ItemData ItemOID="IT.PE.PESEQ" Value="13"/>
      <ItemData ItemOID="IT.PE.PETESTCD" Value="PE07"/>
      <ItemData ItemOID="IT.PE.PETEST" Value="Neurological"/>
      <ItemData ItemOID="IT.PE.PEORRES" Value="NORMAL"/>
      <ItemData ItemOID="IT.PE.PESTRESC" Value="NORMAL"/>
      <ItemData ItemOID="IT.PE.VISITNUM" Value="1"/>
      <ItemData ItemOID="IT.PE.VISIT" Value="SCREEN"/>
      <ItemData ItemOID="IT.PE.VISITDY" Value="-13"/>
      <ItemData ItemOID="IT.PE.PEDTC" Value="2003-09-09"/>
      <ItemData ItemOID="IT.PE.PEDY" Value="-21"/>
    </ItemGroupData>
    <ItemGroupData ItemGroupOID="IG.PE" data:ItemGroupDataSeq="46">
      <ItemData ItemOID="IT.STUDYID" Value="CDISC01"/>
      <ItemData ItemOID="IT.PE.DOMAIN" Value="PE"/>
      <ItemData ItemOID="IT.USUBJID" Value="CDISC01.200001"/>
      <ItemData ItemOID="IT.PE.PESEQ" Value="14"/>
      <ItemData ItemOID="IT.PE.PETESTCD" Value="PE07"/>
      <ItemData ItemOID="IT.PE.PETEST" Value="Neurological"/>
      <ItemData ItemOID="IT.PE.PEORRES" Value="NORMAL"/>
      <ItemData ItemOID="IT.PE.PESTRESC" Value="NORMAL"/>
      <ItemData ItemOID="IT.PE.VISITNUM" Value="10"/>
      <ItemData ItemOID="IT.PE.VISIT" Value="WEEK 24"/>
      <ItemData ItemOID="IT.PE.VISITDY" Value="169"/>
      <ItemData ItemOID="IT.PE.PEDTC" Value="2004-02-02"/>
      <ItemData ItemOID="IT.PE.PEDY" Value="126"/>
    </ItemGroupData>
    <ItemGroupData ItemGroupOID="IG.PE" data:ItemGroupDataSeq="47">
      <ItemData ItemOID="IT.STUDYID" Value="CDISC01"/>
      <ItemData ItemOID="IT.PE.DOMAIN" Value="PE"/>
      <ItemData ItemOID="IT.USUBJID" Value="CDISC01.200001"/>
      <ItemData ItemOID="IT.PE.PESEQ" Value="15"/>
      <ItemData ItemOID="IT.PE.PETESTCD" Value="PE08"/>
      <ItemData ItemOID="IT.PE.PETEST" Value="Musculoskeletal"/>
      <ItemData ItemOID="IT.PE.PEORRES" Value="NORMAL"/>
      <ItemData ItemOID="IT.PE.PESTRESC" Value="NORMAL"/>
      <ItemData ItemOID="IT.PE.VISITNUM" Value="1"/>
      <ItemData ItemOID="IT.PE.VISIT" Value="SCREEN"/>
      <ItemData ItemOID="IT.PE.VISITDY" Value="-13"/>
      <ItemData ItemOID="IT.PE.PEDTC" Value="2003-09-09"/>
      <ItemData ItemOID="IT.PE.PEDY" Value="-21"/>
    </ItemGroupData>
    <ItemGroupData ItemGroupOID="IG.PE" data:ItemGroupDataSeq="48">
      <ItemData ItemOID="IT.STUDYID" Value="CDISC01"/>
      <ItemData ItemOID="IT.PE.DOMAIN" Value="PE"/>
      <ItemData ItemOID="IT.USUBJID" Value="CDISC01.200001"/>
      <ItemData ItemOID="IT.PE.PESEQ" Value="16"/>
      <ItemData ItemOID="IT.PE.PETESTCD" Value="PE08"/>
      <ItemData ItemOID="IT.PE.PETEST" Value="Musculoskeletal"/>
      <ItemData ItemOID="IT.PE.PEORRES" Value="NORMAL"/>
      <ItemData ItemOID="IT.PE.PESTRESC" Value="NORMAL"/>
      <ItemData ItemOID="IT.PE.VISITNUM" Value="10"/>
      <ItemData ItemOID="IT.PE.VISIT" Value="WEEK 24"/>
      <ItemData ItemOID="IT.PE.VISITDY" Value="169"/>
      <ItemData ItemOID="IT.PE.PEDTC" Value="2004-02-02"/>
      <ItemData ItemOID="IT.PE.PEDY" Value="126"/>
    </ItemGroupData>
    <ItemGroupData ItemGroupOID="IG.PE" data:ItemGroupDataSeq="49">
      <ItemData ItemOID="IT.STUDYID" Value="CDISC01"/>
      <ItemData ItemOID="IT.PE.DOMAIN" Value="PE"/>
      <ItemData ItemOID="IT.USUBJID" Value="CDISC01.200002"/>
      <ItemData ItemOID="IT.PE.PESEQ" Value="1"/>
      <ItemData ItemOID="IT.PE.PETESTCD" Value="PE01"/>
      <ItemData ItemOID="IT.PE.PETEST" Value="Appearance/Skin"/>
      <ItemData ItemOID="IT.PE.PEORRES" Value="SENILE KERATOSES"/>
      <ItemData ItemOID="IT.PE.PESTRESC" Value="SENILE KERATOSES"/>
      <ItemData ItemOID="IT.PE.VISITNUM" Value="1"/>
      <ItemData ItemOID="IT.PE.VISIT" Value="SCREEN"/>
      <ItemData ItemOID="IT.PE.VISITDY" Value="-13"/>
      <ItemData ItemOID="IT.PE.PEDTC" Value="2003-09-18"/>
      <ItemData ItemOID="IT.PE.PEDY" Value="-22"/>
    </ItemGroupData>
    <ItemGroupData ItemGroupOID="IG.PE" data:ItemGroupDataSeq="50">
      <ItemData ItemOID="IT.STUDYID" Value="CDISC01"/>
      <ItemData ItemOID="IT.PE.DOMAIN" Value="PE"/>
      <ItemData ItemOID="IT.USUBJID" Value="CDISC01.200002"/>
      <ItemData ItemOID="IT.PE.PESEQ" Value="2"/>
      <ItemData ItemOID="IT.PE.PETESTCD" Value="PE01"/>
      <ItemData ItemOID="IT.PE.PETEST" Value="Appearance/Skin"/>
      <ItemData ItemOID="IT.PE.PEORRES" Value="NORMAL"/>
      <ItemData ItemOID="IT.PE.PESTRESC" Value="NORMAL"/>
      <ItemData ItemOID="IT.PE.VISITNUM" Value="10"/>
      <ItemData ItemOID="IT.PE.VISIT" Value="WEEK 24"/>
      <ItemData ItemOID="IT.PE.VISITDY" Value="169"/>
      <ItemData ItemOID="IT.PE.PEDTC" Value="2004-03-29"/>
      <ItemData ItemOID="IT.PE.PEDY" Value="172"/>
    </ItemGroupData>
    <ItemGroupData ItemGroupOID="IG.PE" data:ItemGroupDataSeq="51">
      <ItemData ItemOID="IT.STUDYID" Value="CDISC01"/>
      <ItemData ItemOID="IT.PE.DOMAIN" Value="PE"/>
      <ItemData ItemOID="IT.USUBJID" Value="CDISC01.200002"/>
      <ItemData ItemOID="IT.PE.PESEQ" Value="3"/>
      <ItemData ItemOID="IT.PE.PETESTCD" Value="PE02"/>
      <ItemData ItemOID="IT.PE.PETEST" Value="Head/Neck (Including Thyroid)"/>
      <ItemData ItemOID="IT.PE.PEORRES" Value="NORMAL"/>
      <ItemData ItemOID="IT.PE.PESTRESC" Value="NORMAL"/>
      <ItemData ItemOID="IT.PE.VISITNUM" Value="1"/>
      <ItemData ItemOID="IT.PE.VISIT" Value="SCREEN"/>
      <ItemData ItemOID="IT.PE.VISITDY" Value="-13"/>
      <ItemData ItemOID="IT.PE.PEDTC" Value="2003-09-18"/>
      <ItemData ItemOID="IT.PE.PEDY" Value="-22"/>
    </ItemGroupData>
    <ItemGroupData ItemGroupOID="IG.PE" data:ItemGroupDataSeq="52">
      <ItemData ItemOID="IT.STUDYID" Value="CDISC01"/>
      <ItemData ItemOID="IT.PE.DOMAIN" Value="PE"/>
      <ItemData ItemOID="IT.USUBJID" Value="CDISC01.200002"/>
      <ItemData ItemOID="IT.PE.PESEQ" Value="4"/>
      <ItemData ItemOID="IT.PE.PETESTCD" Value="PE02"/>
      <ItemData ItemOID="IT.PE.PETEST" Value="Head/Neck (Including Thyroid)"/>
      <ItemData ItemOID="IT.PE.PEORRES" Value="NORMAL"/>
      <ItemData ItemOID="IT.PE.PESTRESC" Value="NORMAL"/>
      <ItemData ItemOID="IT.PE.VISITNUM" Value="10"/>
      <ItemData ItemOID="IT.PE.VISIT" Value="WEEK 24"/>
      <ItemData ItemOID="IT.PE.VISITDY" Value="169"/>
      <ItemData ItemOID="IT.PE.PEDTC" Value="2004-03-29"/>
      <ItemData ItemOID="IT.PE.PEDY" Value="172"/>
    </ItemGroupData>
    <ItemGroupData ItemGroupOID="IG.PE" data:ItemGroupDataSeq="53">
      <ItemData ItemOID="IT.STUDYID" Value="CDISC01"/>
      <ItemData ItemOID="IT.PE.DOMAIN" Value="PE"/>
      <ItemData ItemOID="IT.USUBJID" Value="CDISC01.200002"/>
      <ItemData ItemOID="IT.PE.PESEQ" Value="5"/>
      <ItemData ItemOID="IT.PE.PETESTCD" Value="PE03"/>
      <ItemData ItemOID="IT.PE.PETEST" Value="Eyes-Ears-Nose-Throat"/>
      <ItemData ItemOID="IT.PE.PEORRES" Value="NORMAL"/>
      <ItemData ItemOID="IT.PE.PESTRESC" Value="NORMAL"/>
      <ItemData ItemOID="IT.PE.VISITNUM" Value="1"/>
      <ItemData ItemOID="IT.PE.VISIT" Value="SCREEN"/>
      <ItemData ItemOID="IT.PE.VISITDY" Value="-13"/>
      <ItemData ItemOID="IT.PE.PEDTC" Value="2003-09-18"/>
      <ItemData ItemOID="IT.PE.PEDY" Value="-22"/>
    </ItemGroupData>
    <ItemGroupData ItemGroupOID="IG.PE" data:ItemGroupDataSeq="54">
      <ItemData ItemOID="IT.STUDYID" Value="CDISC01"/>
      <ItemData ItemOID="IT.PE.DOMAIN" Value="PE"/>
      <ItemData ItemOID="IT.USUBJID" Value="CDISC01.200002"/>
      <ItemData ItemOID="IT.PE.PESEQ" Value="6"/>
      <ItemData ItemOID="IT.PE.PETESTCD" Value="PE03"/>
      <ItemData ItemOID="IT.PE.PETEST" Value="Eyes-Ears-Nose-Throat"/>
      <ItemData ItemOID="IT.PE.PEORRES" Value="NORMAL"/>
      <ItemData ItemOID="IT.PE.PESTRESC" Value="NORMAL"/>
      <ItemData ItemOID="IT.PE.VISITNUM" Value="10"/>
      <ItemData ItemOID="IT.PE.VISIT" Value="WEEK 24"/>
      <ItemData ItemOID="IT.PE.VISITDY" Value="169"/>
      <ItemData ItemOID="IT.PE.PEDTC" Value="2004-03-29"/>
      <ItemData ItemOID="IT.PE.PEDY" Value="172"/>
    </ItemGroupData>
    <ItemGroupData ItemGroupOID="IG.PE" data:ItemGroupDataSeq="55">
      <ItemData ItemOID="IT.STUDYID" Value="CDISC01"/>
      <ItemData ItemOID="IT.PE.DOMAIN" Value="PE"/>
      <ItemData ItemOID="IT.USUBJID" Value="CDISC01.200002"/>
      <ItemData ItemOID="IT.PE.PESEQ" Value="7"/>
      <ItemData ItemOID="IT.PE.PETESTCD" Value="PE04"/>
      <ItemData ItemOID="IT.PE.PETEST" Value="Cardiovascular"/>
      <ItemData ItemOID="IT.PE.PEORRES" Value="NORMAL"/>
      <ItemData ItemOID="IT.PE.PESTRESC" Value="NORMAL"/>
      <ItemData ItemOID="IT.PE.VISITNUM" Value="1"/>
      <ItemData ItemOID="IT.PE.VISIT" Value="SCREEN"/>
      <ItemData ItemOID="IT.PE.VISITDY" Value="-13"/>
      <ItemData ItemOID="IT.PE.PEDTC" Value="2003-09-18"/>
      <ItemData ItemOID="IT.PE.PEDY" Value="-22"/>
    </ItemGroupData>
    <ItemGroupData ItemGroupOID="IG.PE" data:ItemGroupDataSeq="56">
      <ItemData ItemOID="IT.STUDYID" Value="CDISC01"/>
      <ItemData ItemOID="IT.PE.DOMAIN" Value="PE"/>
      <ItemData ItemOID="IT.USUBJID" Value="CDISC01.200002"/>
      <ItemData ItemOID="IT.PE.PESEQ" Value="8"/>
      <ItemData ItemOID="IT.PE.PETESTCD" Value="PE04"/>
      <ItemData ItemOID="IT.PE.PETEST" Value="Cardiovascular"/>
      <ItemData ItemOID="IT.PE.PEORRES" Value="SOFT SYSTOLIC MURMUR"/>
      <ItemData ItemOID="IT.PE.PESTRESC" Value="SOFT SYSTOLIC MURMUR"/>
      <ItemData ItemOID="IT.PE.VISITNUM" Value="10"/>
      <ItemData ItemOID="IT.PE.VISIT" Value="WEEK 24"/>
      <ItemData ItemOID="IT.PE.VISITDY" Value="169"/>
      <ItemData ItemOID="IT.PE.PEDTC" Value="2004-03-29"/>
      <ItemData ItemOID="IT.PE.PEDY" Value="172"/>
    </ItemGroupData>
    <ItemGroupData ItemGroupOID="IG.PE" data:ItemGroupDataSeq="57">
      <ItemData ItemOID="IT.STUDYID" Value="CDISC01"/>
      <ItemData ItemOID="IT.PE.DOMAIN" Value="PE"/>
      <ItemData ItemOID="IT.USUBJID" Value="CDISC01.200002"/>
      <ItemData ItemOID="IT.PE.PESEQ" Value="9"/>
      <ItemData ItemOID="IT.PE.PETESTCD" Value="PE05"/>
      <ItemData ItemOID="IT.PE.PETEST" Value="Pulmonary"/>
      <ItemData ItemOID="IT.PE.PEORRES" Value="NORMAL"/>
      <ItemData ItemOID="IT.PE.PESTRESC" Value="NORMAL"/>
      <ItemData ItemOID="IT.PE.VISITNUM" Value="1"/>
      <ItemData ItemOID="IT.PE.VISIT" Value="SCREEN"/>
      <ItemData ItemOID="IT.PE.VISITDY" Value="-13"/>
      <ItemData ItemOID="IT.PE.PEDTC" Value="2003-09-18"/>
      <ItemData ItemOID="IT.PE.PEDY" Value="-22"/>
    </ItemGroupData>
    <ItemGroupData ItemGroupOID="IG.PE" data:ItemGroupDataSeq="58">
      <ItemData ItemOID="IT.STUDYID" Value="CDISC01"/>
      <ItemData ItemOID="IT.PE.DOMAIN" Value="PE"/>
      <ItemData ItemOID="IT.USUBJID" Value="CDISC01.200002"/>
      <ItemData ItemOID="IT.PE.PESEQ" Value="10"/>
      <ItemData ItemOID="IT.PE.PETESTCD" Value="PE05"/>
      <ItemData ItemOID="IT.PE.PETEST" Value="Pulmonary"/>
      <ItemData ItemOID="IT.PE.PEORRES" Value="NORMAL"/>
      <ItemData ItemOID="IT.PE.PESTRESC" Value="NORMAL"/>
      <ItemData ItemOID="IT.PE.VISITNUM" Value="10"/>
      <ItemData ItemOID="IT.PE.VISIT" Value="WEEK 24"/>
      <ItemData ItemOID="IT.PE.VISITDY" Value="169"/>
      <ItemData ItemOID="IT.PE.PEDTC" Value="2004-03-29"/>
      <ItemData ItemOID="IT.PE.PEDY" Value="172"/>
    </ItemGroupData>
    <ItemGroupData ItemGroupOID="IG.PE" data:ItemGroupDataSeq="59">
      <ItemData ItemOID="IT.STUDYID" Value="CDISC01"/>
      <ItemData ItemOID="IT.PE.DOMAIN" Value="PE"/>
      <ItemData ItemOID="IT.USUBJID" Value="CDISC01.200002"/>
      <ItemData ItemOID="IT.PE.PESEQ" Value="11"/>
      <ItemData ItemOID="IT.PE.PETESTCD" Value="PE06"/>
      <ItemData ItemOID="IT.PE.PETEST" Value="Abdomen"/>
      <ItemData ItemOID="IT.PE.PEORRES" Value="NORMAL"/>
      <ItemData ItemOID="IT.PE.PESTRESC" Value="NORMAL"/>
      <ItemData ItemOID="IT.PE.VISITNUM" Value="1"/>
      <ItemData ItemOID="IT.PE.VISIT" Value="SCREEN"/>
      <ItemData ItemOID="IT.PE.VISITDY" Value="-13"/>
      <ItemData ItemOID="IT.PE.PEDTC" Value="2003-09-18"/>
      <ItemData ItemOID="IT.PE.PEDY" Value="-22"/>
    </ItemGroupData>
    <ItemGroupData ItemGroupOID="IG.PE" data:ItemGroupDataSeq="60">
      <ItemData ItemOID="IT.STUDYID" Value="CDISC01"/>
      <ItemData ItemOID="IT.PE.DOMAIN" Value="PE"/>
      <ItemData ItemOID="IT.USUBJID" Value="CDISC01.200002"/>
      <ItemData ItemOID="IT.PE.PESEQ" Value="12"/>
      <ItemData ItemOID="IT.PE.PETESTCD" Value="PE06"/>
      <ItemData ItemOID="IT.PE.PETEST" Value="Abdomen"/>
      <ItemData ItemOID="IT.PE.PEORRES" Value="NORMAL"/>
      <ItemData ItemOID="IT.PE.PESTRESC" Value="NORMAL"/>
      <ItemData ItemOID="IT.PE.VISITNUM" Value="10"/>
      <ItemData ItemOID="IT.PE.VISIT" Value="WEEK 24"/>
      <ItemData ItemOID="IT.PE.VISITDY" Value="169"/>
      <ItemData ItemOID="IT.PE.PEDTC" Value="2004-03-29"/>
      <ItemData ItemOID="IT.PE.PEDY" Value="172"/>
    </ItemGroupData>
    <ItemGroupData ItemGroupOID="IG.PE" data:ItemGroupDataSeq="61">
      <ItemData ItemOID="IT.STUDYID" Value="CDISC01"/>
      <ItemData ItemOID="IT.PE.DOMAIN" Value="PE"/>
      <ItemData ItemOID="IT.USUBJID" Value="CDISC01.200002"/>
      <ItemData ItemOID="IT.PE.PESEQ" Value="13"/>
      <ItemData ItemOID="IT.PE.PETESTCD" Value="PE07"/>
      <ItemData ItemOID="IT.PE.PETEST" Value="Neurological"/>
      <ItemData ItemOID="IT.PE.PEORRES" Value="NORMAL"/>
      <ItemData ItemOID="IT.PE.PESTRESC" Value="NORMAL"/>
      <ItemData ItemOID="IT.PE.VISITNUM" Value="1"/>
      <ItemData ItemOID="IT.PE.VISIT" Value="SCREEN"/>
      <ItemData ItemOID="IT.PE.VISITDY" Value="-13"/>
      <ItemData ItemOID="IT.PE.PEDTC" Value="2003-09-18"/>
      <ItemData ItemOID="IT.PE.PEDY" Value="-22"/>
    </ItemGroupData>
    <ItemGroupData ItemGroupOID="IG.PE" data:ItemGroupDataSeq="62">
      <ItemData ItemOID="IT.STUDYID" Value="CDISC01"/>
      <ItemData ItemOID="IT.PE.DOMAIN" Value="PE"/>
      <ItemData ItemOID="IT.USUBJID" Value="CDISC01.200002"/>
      <ItemData ItemOID="IT.PE.PESEQ" Value="14"/>
      <ItemData ItemOID="IT.PE.PETESTCD" Value="PE07"/>
      <ItemData ItemOID="IT.PE.PETEST" Value="Neurological"/>
      <ItemData ItemOID="IT.PE.PEORRES" Value="MILD TREMOR FINGER TO NOSE"/>
      <ItemData ItemOID="IT.PE.PESTRESC" Value="MILD TREMOR FINGER TO NOSE"/>
      <ItemData ItemOID="IT.PE.VISITNUM" Value="10"/>
      <ItemData ItemOID="IT.PE.VISIT" Value="WEEK 24"/>
      <ItemData ItemOID="IT.PE.VISITDY" Value="169"/>
      <ItemData ItemOID="IT.PE.PEDTC" Value="2004-03-29"/>
      <ItemData ItemOID="IT.PE.PEDY" Value="172"/>
    </ItemGroupData>
    <ItemGroupData ItemGroupOID="IG.PE" data:ItemGroupDataSeq="63">
      <ItemData ItemOID="IT.STUDYID" Value="CDISC01"/>
      <ItemData ItemOID="IT.PE.DOMAIN" Value="PE"/>
      <ItemData ItemOID="IT.USUBJID" Value="CDISC01.200002"/>
      <ItemData ItemOID="IT.PE.PESEQ" Value="15"/>
      <ItemData ItemOID="IT.PE.PETESTCD" Value="PE08"/>
      <ItemData ItemOID="IT.PE.PETEST" Value="Musculoskeletal"/>
      <ItemData ItemOID="IT.PE.PEORRES" Value="NORMAL"/>
      <ItemData ItemOID="IT.PE.PESTRESC" Value="NORMAL"/>
      <ItemData ItemOID="IT.PE.VISITNUM" Value="1"/>
      <ItemData ItemOID="IT.PE.VISIT" Value="SCREEN"/>
      <ItemData ItemOID="IT.PE.VISITDY" Value="-13"/>
      <ItemData ItemOID="IT.PE.PEDTC" Value="2003-09-18"/>
      <ItemData ItemOID="IT.PE.PEDY" Value="-22"/>
    </ItemGroupData>
    <ItemGroupData ItemGroupOID="IG.PE" data:ItemGroupDataSeq="64">
      <ItemData ItemOID="IT.STUDYID" Value="CDISC01"/>
      <ItemData ItemOID="IT.PE.DOMAIN" Value="PE"/>
      <ItemData ItemOID="IT.USUBJID" Value="CDISC01.200002"/>
      <ItemData ItemOID="IT.PE.PESEQ" Value="16"/>
      <ItemData ItemOID="IT.PE.PETESTCD" Value="PE08"/>
      <ItemData ItemOID="IT.PE.PETEST" Value="Musculoskeletal"/>
      <ItemData ItemOID="IT.PE.PEORRES" Value="NORMAL"/>
      <ItemData ItemOID="IT.PE.PESTRESC" Value="NORMAL"/>
      <ItemData ItemOID="IT.PE.VISITNUM" Value="10"/>
      <ItemData ItemOID="IT.PE.VISIT" Value="WEEK 24"/>
      <ItemData ItemOID="IT.PE.VISITDY" Value="169"/>
      <ItemData ItemOID="IT.PE.PEDTC" Value="2004-03-29"/>
      <ItemData ItemOID="IT.PE.PEDY" Value="172"/>
    </ItemGroupData>
    <ItemGroupData ItemGroupOID="IG.PE" data:ItemGroupDataSeq="65">
      <ItemData ItemOID="IT.STUDYID" Value="CDISC01"/>
      <ItemData ItemOID="IT.PE.DOMAIN" Value="PE"/>
      <ItemData ItemOID="IT.USUBJID" Value="CDISC01.200002"/>
      <ItemData ItemOID="IT.PE.PESEQ" Value="17"/>
      <ItemData ItemOID="IT.PE.PETESTCD" Value="PE09"/>
      <ItemData ItemOID="IT.PE.PETEST" Value="Other"/>
      <ItemData ItemOID="IT.PE.PEORRES" Value="GENERAL DENUTRITION"/>
      <ItemData ItemOID="IT.PE.PESTRESC" Value="GENERAL DENUTRITION"/>
      <ItemData ItemOID="IT.PE.VISITNUM" Value="10"/>
      <ItemData ItemOID="IT.PE.VISIT" Value="WEEK 24"/>
      <ItemData ItemOID="IT.PE.VISITDY" Value="169"/>
      <ItemData ItemOID="IT.PE.PEDTC" Value="2004-03-29"/>
      <ItemData ItemOID="IT.PE.PEDY" Value="172"/>
    </ItemGroupData>
  </ClinicalData>
</ODM>
