<?xml version="1.0" encoding="UTF-8"?>
<!-- Dataset-XML: Untyped Data Example  --> 
<!-- Built from the SAS XPT files published with the SDTM-MSG (SDTM Metadata Submission Guidelines) V1 --> 
<!-- Prepared by Marcelina Hungria / DIcore Group, LLC --> 
<ODM
  xmlns="http://www.cdisc.org/ns/odm/v1.3"
  xmlns:xlink="http://www.w3.org/1999/xlink" 
  xmlns:data="http://www.cdisc.org/ns/Dataset-XML/v1.0"
  FileType="Snapshot"
  ODMVersion="1.3.2"
  data:DatasetXMLVersion="1.0.0"
  FileOID="www.cdisc.org.Studycdisc01-Define-XML_2.0.0(IG.SE)"
  PriorFileOID="www.cdisc.org.Studycdisc01-Define-XML_2.0.0"
  Originator="CDISC Dataset-XML Team"
  CreationDateTime="2014-04-01T09:31:03">
  <ClinicalData
    StudyOID="cdisc01"
    MetaDataVersionOID="MDV.CDISC01.SDTMIG.3.1.2.SDTM.1.2">
    <!-- Dataset (SE) -->
    <ItemGroupData ItemGroupOID="IG.SE" data:ItemGroupDataSeq="1">
      <ItemData ItemOID="IT.STUDYID" Value="CDISC01"/>
      <ItemData ItemOID="IT.SE.DOMAIN" Value="SE"/>
      <ItemData ItemOID="IT.USUBJID" Value="CDISC01.100008"/>
      <ItemData ItemOID="IT.SE.SESEQ" Value="1"/>
      <ItemData ItemOID="IT.SE.ETCD" Value="SCREEN"/>
      <ItemData ItemOID="IT.SE.ELEMENT" Value="Screening"/>
      <ItemData ItemOID="IT.SE.SESTDTC" Value="2003-04-15"/>
      <ItemData ItemOID="IT.SE.SEENDTC" Value="2003-04-29"/>
      <ItemData ItemOID="IT.SE.TAETORD" Value="1"/>
    </ItemGroupData>
    <ItemGroupData ItemGroupOID="IG.SE" data:ItemGroupDataSeq="2">
      <ItemData ItemOID="IT.STUDYID" Value="CDISC01"/>
      <ItemData ItemOID="IT.SE.DOMAIN" Value="SE"/>
      <ItemData ItemOID="IT.USUBJID" Value="CDISC01.100008"/>
      <ItemData ItemOID="IT.SE.SESEQ" Value="2"/>
      <ItemData ItemOID="IT.SE.ETCD" Value="WOND10"/>
      <ItemData ItemOID="IT.SE.ELEMENT" Value="Treatment 10 mg Miracle Drug"/>
      <ItemData ItemOID="IT.SE.SESTDTC" Value="2003-04-29"/>
      <ItemData ItemOID="IT.SE.SEENDTC" Value="2003-10-12"/>
      <ItemData ItemOID="IT.SE.TAETORD" Value="2"/>
    </ItemGroupData>
    <ItemGroupData ItemGroupOID="IG.SE" data:ItemGroupDataSeq="3">
      <ItemData ItemOID="IT.STUDYID" Value="CDISC01"/>
      <ItemData ItemOID="IT.SE.DOMAIN" Value="SE"/>
      <ItemData ItemOID="IT.USUBJID" Value="CDISC01.100008"/>
      <ItemData ItemOID="IT.SE.SESEQ" Value="3"/>
      <ItemData ItemOID="IT.SE.ETCD" Value="EOS"/>
      <ItemData ItemOID="IT.SE.ELEMENT" Value="End of Study"/>
      <ItemData ItemOID="IT.SE.SESTDTC" Value="2003-10-12"/>
      <ItemData ItemOID="IT.SE.SEENDTC" Value="2003-10-12"/>
      <ItemData ItemOID="IT.SE.TAETORD" Value="3"/>
    </ItemGroupData>
    <ItemGroupData ItemGroupOID="IG.SE" data:ItemGroupDataSeq="4">
      <ItemData ItemOID="IT.STUDYID" Value="CDISC01"/>
      <ItemData ItemOID="IT.SE.DOMAIN" Value="SE"/>
      <ItemData ItemOID="IT.USUBJID" Value="CDISC01.100014"/>
      <ItemData ItemOID="IT.SE.SESEQ" Value="1"/>
      <ItemData ItemOID="IT.SE.ETCD" Value="SCREEN"/>
      <ItemData ItemOID="IT.SE.ELEMENT" Value="Screening"/>
      <ItemData ItemOID="IT.SE.SESTDTC" Value="2003-10-06"/>
      <ItemData ItemOID="IT.SE.SEENDTC" Value="2003-10-15"/>
      <ItemData ItemOID="IT.SE.TAETORD" Value="1"/>
    </ItemGroupData>
    <ItemGroupData ItemGroupOID="IG.SE" data:ItemGroupDataSeq="5">
      <ItemData ItemOID="IT.STUDYID" Value="CDISC01"/>
      <ItemData ItemOID="IT.SE.DOMAIN" Value="SE"/>
      <ItemData ItemOID="IT.USUBJID" Value="CDISC01.100014"/>
      <ItemData ItemOID="IT.SE.SESEQ" Value="2"/>
      <ItemData ItemOID="IT.SE.ETCD" Value="WOND20"/>
      <ItemData ItemOID="IT.SE.ELEMENT" Value="Treatment 20 mg Miracle Drug"/>
      <ItemData ItemOID="IT.SE.SESTDTC" Value="2003-10-15"/>
      <ItemData ItemOID="IT.SE.SEENDTC" Value="2004-03-29"/>
      <ItemData ItemOID="IT.SE.TAETORD" Value="2"/>
    </ItemGroupData>
    <ItemGroupData ItemGroupOID="IG.SE" data:ItemGroupDataSeq="6">
      <ItemData ItemOID="IT.STUDYID" Value="CDISC01"/>
      <ItemData ItemOID="IT.SE.DOMAIN" Value="SE"/>
      <ItemData ItemOID="IT.USUBJID" Value="CDISC01.100014"/>
      <ItemData ItemOID="IT.SE.SESEQ" Value="3"/>
      <ItemData ItemOID="IT.SE.ETCD" Value="EOS"/>
      <ItemData ItemOID="IT.SE.ELEMENT" Value="End of Study"/>
      <ItemData ItemOID="IT.SE.SESTDTC" Value="2004-03-29"/>
      <ItemData ItemOID="IT.SE.SEENDTC" Value="2004-03-29"/>
      <ItemData ItemOID="IT.SE.TAETORD" Value="3"/>
    </ItemGroupData>
    <ItemGroupData ItemGroupOID="IG.SE" data:ItemGroupDataSeq="7">
      <ItemData ItemOID="IT.STUDYID" Value="CDISC01"/>
      <ItemData ItemOID="IT.SE.DOMAIN" Value="SE"/>
      <ItemData ItemOID="IT.USUBJID" Value="CDISC01.200001"/>
      <ItemData ItemOID="IT.SE.SESEQ" Value="1"/>
      <ItemData ItemOID="IT.SE.ETCD" Value="SCREEN"/>
      <ItemData ItemOID="IT.SE.ELEMENT" Value="Screening"/>
      <ItemData ItemOID="IT.SE.SESTDTC" Value="2003-09-09"/>
      <ItemData ItemOID="IT.SE.SEENDTC" Value="2003-09-30"/>
      <ItemData ItemOID="IT.SE.TAETORD" Value="1"/>
    </ItemGroupData>
    <ItemGroupData ItemGroupOID="IG.SE" data:ItemGroupDataSeq="8">
      <ItemData ItemOID="IT.STUDYID" Value="CDISC01"/>
      <ItemData ItemOID="IT.SE.DOMAIN" Value="SE"/>
      <ItemData ItemOID="IT.USUBJID" Value="CDISC01.200001"/>
      <ItemData ItemOID="IT.SE.SESEQ" Value="2"/>
      <ItemData ItemOID="IT.SE.ETCD" Value="PLACEBO"/>
      <ItemData ItemOID="IT.SE.ELEMENT" Value="Treatment Placebo"/>
      <ItemData ItemOID="IT.SE.SESTDTC" Value="2003-09-30"/>
      <ItemData ItemOID="IT.SE.SEENDTC" Value="2004-01-19"/>
      <ItemData ItemOID="IT.SE.TAETORD" Value="2"/>
    </ItemGroupData>
    <ItemGroupData ItemGroupOID="IG.SE" data:ItemGroupDataSeq="9">
      <ItemData ItemOID="IT.STUDYID" Value="CDISC01"/>
      <ItemData ItemOID="IT.SE.DOMAIN" Value="SE"/>
      <ItemData ItemOID="IT.USUBJID" Value="CDISC01.200001"/>
      <ItemData ItemOID="IT.SE.SESEQ" Value="3"/>
      <ItemData ItemOID="IT.SE.ETCD" Value="EOS"/>
      <ItemData ItemOID="IT.SE.ELEMENT" Value="End of Study"/>
      <ItemData ItemOID="IT.SE.SESTDTC" Value="2004-02-02"/>
      <ItemData ItemOID="IT.SE.SEENDTC" Value="2004-02-02"/>
      <ItemData ItemOID="IT.SE.TAETORD" Value="3"/>
    </ItemGroupData>
    <ItemGroupData ItemGroupOID="IG.SE" data:ItemGroupDataSeq="10">
      <ItemData ItemOID="IT.STUDYID" Value="CDISC01"/>
      <ItemData ItemOID="IT.SE.DOMAIN" Value="SE"/>
      <ItemData ItemOID="IT.USUBJID" Value="CDISC01.200002"/>
      <ItemData ItemOID="IT.SE.SESEQ" Value="1"/>
      <ItemData ItemOID="IT.SE.ETCD" Value="SCREEN"/>
      <ItemData ItemOID="IT.SE.ELEMENT" Value="Screening"/>
      <ItemData ItemOID="IT.SE.SESTDTC" Value="2003-09-18"/>
      <ItemData ItemOID="IT.SE.SEENDTC" Value="2003-10-10"/>
      <ItemData ItemOID="IT.SE.TAETORD" Value="1"/>
    </ItemGroupData>
    <ItemGroupData ItemGroupOID="IG.SE" data:ItemGroupDataSeq="11">
      <ItemData ItemOID="IT.STUDYID" Value="CDISC01"/>
      <ItemData ItemOID="IT.SE.DOMAIN" Value="SE"/>
      <ItemData ItemOID="IT.USUBJID" Value="CDISC01.200002"/>
      <ItemData ItemOID="IT.SE.SESEQ" Value="2"/>
      <ItemData ItemOID="IT.SE.ETCD" Value="WOND10"/>
      <ItemData ItemOID="IT.SE.ELEMENT" Value="Treatment 10 mg Miracle Drug"/>
      <ItemData ItemOID="IT.SE.SESTDTC" Value="2003-10-10"/>
      <ItemData ItemOID="IT.SE.SEENDTC" Value="2004-03-28"/>
      <ItemData ItemOID="IT.SE.TAETORD" Value="2"/>
    </ItemGroupData>
    <ItemGroupData ItemGroupOID="IG.SE" data:ItemGroupDataSeq="12">
      <ItemData ItemOID="IT.STUDYID" Value="CDISC01"/>
      <ItemData ItemOID="IT.SE.DOMAIN" Value="SE"/>
      <ItemData ItemOID="IT.USUBJID" Value="CDISC01.200002"/>
      <ItemData ItemOID="IT.SE.SESEQ" Value="3"/>
      <ItemData ItemOID="IT.SE.ETCD" Value="EOS"/>
      <ItemData ItemOID="IT.SE.ELEMENT" Value="End of Study"/>
      <ItemData ItemOID="IT.SE.SESTDTC" Value="2004-03-28"/>
      <ItemData ItemOID="IT.SE.SEENDTC" Value="2004-03-28"/>
      <ItemData ItemOID="IT.SE.TAETORD" Value="3"/>
    </ItemGroupData>
    <ItemGroupData ItemGroupOID="IG.SE" data:ItemGroupDataSeq="13">
      <ItemData ItemOID="IT.STUDYID" Value="CDISC01"/>
      <ItemData ItemOID="IT.SE.DOMAIN" Value="SE"/>
      <ItemData ItemOID="IT.USUBJID" Value="CDISC01.200005"/>
      <ItemData ItemOID="IT.SE.SESEQ" Value="1"/>
      <ItemData ItemOID="IT.SE.ETCD" Value="SCREEN"/>
      <ItemData ItemOID="IT.SE.ELEMENT" Value="Screening"/>
      <ItemData ItemOID="IT.SE.SESTDTC" Value="2003-09-15"/>
      <ItemData ItemOID="IT.SE.SEENDTC" Value="2003-09-15"/>
      <ItemData ItemOID="IT.SE.TAETORD" Value="1"/>
    </ItemGroupData>
    <ItemGroupData ItemGroupOID="IG.SE" data:ItemGroupDataSeq="14">
      <ItemData ItemOID="IT.STUDYID" Value="CDISC01"/>
      <ItemData ItemOID="IT.SE.DOMAIN" Value="SE"/>
      <ItemData ItemOID="IT.USUBJID" Value="CDISC01.200005"/>
      <ItemData ItemOID="IT.SE.SESEQ" Value="2"/>
      <ItemData ItemOID="IT.SE.ETCD" Value="EOS"/>
      <ItemData ItemOID="IT.SE.ELEMENT" Value="End of Study"/>
      <ItemData ItemOID="IT.SE.SESTDTC" Value="2003-09-15"/>
      <ItemData ItemOID="IT.SE.SEENDTC" Value="2003-09-15"/>
      <ItemData ItemOID="IT.SE.TAETORD" Value="3"/>
    </ItemGroupData>
  </ClinicalData>
</ODM>
