<?xml version="1.0" encoding="UTF-8"?>
<!-- Dataset-XML: Untyped Data Example  --> 
<!-- Built from the SAS XPT files published with the SDTM-MSG (SDTM Metadata Submission Guidelines) V1 --> 
<!-- Prepared by Marcelina Hungria / DIcore Group, LLC --> 
<ODM
  xmlns="http://www.cdisc.org/ns/odm/v1.3"
  xmlns:xlink="http://www.w3.org/1999/xlink" 
  xmlns:data="http://www.cdisc.org/ns/Dataset-XML/v1.0"
  FileType="Snapshot"
  ODMVersion="1.3.2"
  data:DatasetXMLVersion="1.0.0"
  FileOID="www.cdisc.org.Studycdisc01-Define-XML_2.0.0(IG.SUPPDM)"
  PriorFileOID="www.cdisc.org.Studycdisc01-Define-XML_2.0.0"
  Originator="CDISC Dataset-XML Team"
  CreationDateTime="2014-04-01T09:31:03">
  <ClinicalData
    StudyOID="cdisc01"
    MetaDataVersionOID="MDV.CDISC01.SDTMIG.3.1.2.SDTM.1.2">
    <!-- Dataset (SUPPDM) -->
    <ItemGroupData ItemGroupOID="IG.SUPPDM" data:ItemGroupDataSeq="1">
      <ItemData ItemOID="IT.STUDYID" Value="CDISC01"/>
      <ItemData ItemOID="IT.RDOMAIN" Value="DM"/>
      <ItemData ItemOID="IT.USUBJID" Value="CDISC01.100008"/>
      <ItemData ItemOID="IT.SUPPDM.QNAM" Value="RACEOTH"/>
      <ItemData ItemOID="IT.SUPPDM.QLABEL" Value="Race, Other"/>
      <ItemData ItemOID="IT.SUPPDM.QVAL" Value="EASTERN INDIAN"/>
      <ItemData ItemOID="IT.SUPPDM.QORIG" Value="CRF"/>
    </ItemGroupData>
    <ItemGroupData ItemGroupOID="IG.SUPPDM" data:ItemGroupDataSeq="2">
      <ItemData ItemOID="IT.STUDYID" Value="CDISC01"/>
      <ItemData ItemOID="IT.RDOMAIN" Value="DM"/>
      <ItemData ItemOID="IT.USUBJID" Value="CDISC01.100008"/>
      <ItemData ItemOID="IT.SUPPDM.QNAM" Value="RAND"/>
      <ItemData ItemOID="IT.SUPPDM.QLABEL" Value="Randomized Population Flag"/>
      <ItemData ItemOID="IT.SUPPDM.QVAL" Value="Y"/>
      <ItemData ItemOID="IT.SUPPDM.QORIG" Value="CRF"/>
    </ItemGroupData>
    <ItemGroupData ItemGroupOID="IG.SUPPDM" data:ItemGroupDataSeq="3">
      <ItemData ItemOID="IT.STUDYID" Value="CDISC01"/>
      <ItemData ItemOID="IT.RDOMAIN" Value="DM"/>
      <ItemData ItemOID="IT.USUBJID" Value="CDISC01.100008"/>
      <ItemData ItemOID="IT.SUPPDM.QNAM" Value="RANDNO"/>
      <ItemData ItemOID="IT.SUPPDM.QLABEL" Value="Randomization Number"/>
      <ItemData ItemOID="IT.SUPPDM.QVAL" Value="0004"/>
      <ItemData ItemOID="IT.SUPPDM.QORIG" Value="CRF"/>
    </ItemGroupData>
    <ItemGroupData ItemGroupOID="IG.SUPPDM" data:ItemGroupDataSeq="4">
      <ItemData ItemOID="IT.STUDYID" Value="CDISC01"/>
      <ItemData ItemOID="IT.RDOMAIN" Value="DM"/>
      <ItemData ItemOID="IT.USUBJID" Value="CDISC01.100008"/>
      <ItemData ItemOID="IT.SUPPDM.QNAM" Value="SAFETY"/>
      <ItemData ItemOID="IT.SUPPDM.QLABEL" Value="Safety Population Flag"/>
      <ItemData ItemOID="IT.SUPPDM.QVAL" Value="Y"/>
      <ItemData ItemOID="IT.SUPPDM.QORIG" Value="Derived"/>
      <ItemData ItemOID="IT.SUPPDM.QEVAL" Value="CLINICAL STUDY SPONSOR"/>
    </ItemGroupData>
    <ItemGroupData ItemGroupOID="IG.SUPPDM" data:ItemGroupDataSeq="5">
      <ItemData ItemOID="IT.STUDYID" Value="CDISC01"/>
      <ItemData ItemOID="IT.RDOMAIN" Value="DM"/>
      <ItemData ItemOID="IT.USUBJID" Value="CDISC01.100014"/>
      <ItemData ItemOID="IT.SUPPDM.QNAM" Value="RAND"/>
      <ItemData ItemOID="IT.SUPPDM.QLABEL" Value="Randomized Population Flag"/>
      <ItemData ItemOID="IT.SUPPDM.QVAL" Value="Y"/>
      <ItemData ItemOID="IT.SUPPDM.QORIG" Value="CRF"/>
    </ItemGroupData>
    <ItemGroupData ItemGroupOID="IG.SUPPDM" data:ItemGroupDataSeq="6">
      <ItemData ItemOID="IT.STUDYID" Value="CDISC01"/>
      <ItemData ItemOID="IT.RDOMAIN" Value="DM"/>
      <ItemData ItemOID="IT.USUBJID" Value="CDISC01.100014"/>
      <ItemData ItemOID="IT.SUPPDM.QNAM" Value="RANDNO"/>
      <ItemData ItemOID="IT.SUPPDM.QLABEL" Value="Randomization Number"/>
      <ItemData ItemOID="IT.SUPPDM.QVAL" Value="0008"/>
      <ItemData ItemOID="IT.SUPPDM.QORIG" Value="CRF"/>
    </ItemGroupData>
    <ItemGroupData ItemGroupOID="IG.SUPPDM" data:ItemGroupDataSeq="7">
      <ItemData ItemOID="IT.STUDYID" Value="CDISC01"/>
      <ItemData ItemOID="IT.RDOMAIN" Value="DM"/>
      <ItemData ItemOID="IT.USUBJID" Value="CDISC01.100014"/>
      <ItemData ItemOID="IT.SUPPDM.QNAM" Value="SAFETY"/>
      <ItemData ItemOID="IT.SUPPDM.QLABEL" Value="Safety Population Flag"/>
      <ItemData ItemOID="IT.SUPPDM.QVAL" Value="Y"/>
      <ItemData ItemOID="IT.SUPPDM.QORIG" Value="Derived"/>
      <ItemData ItemOID="IT.SUPPDM.QEVAL" Value="CLINICAL STUDY SPONSOR"/>
    </ItemGroupData>
    <ItemGroupData ItemGroupOID="IG.SUPPDM" data:ItemGroupDataSeq="8">
      <ItemData ItemOID="IT.STUDYID" Value="CDISC01"/>
      <ItemData ItemOID="IT.RDOMAIN" Value="DM"/>
      <ItemData ItemOID="IT.USUBJID" Value="CDISC01.200001"/>
      <ItemData ItemOID="IT.SUPPDM.QNAM" Value="RACE1"/>
      <ItemData ItemOID="IT.SUPPDM.QLABEL" Value="Race 1"/>
      <ItemData ItemOID="IT.SUPPDM.QVAL" Value="ASIAN"/>
      <ItemData ItemOID="IT.SUPPDM.QORIG" Value="CRF"/>
    </ItemGroupData>
    <ItemGroupData ItemGroupOID="IG.SUPPDM" data:ItemGroupDataSeq="9">
      <ItemData ItemOID="IT.STUDYID" Value="CDISC01"/>
      <ItemData ItemOID="IT.RDOMAIN" Value="DM"/>
      <ItemData ItemOID="IT.USUBJID" Value="CDISC01.200001"/>
      <ItemData ItemOID="IT.SUPPDM.QNAM" Value="RACE2"/>
      <ItemData ItemOID="IT.SUPPDM.QLABEL" Value="Race 2"/>
      <ItemData ItemOID="IT.SUPPDM.QVAL" Value="BLACK OR AFRICAN AMERICAN"/>
      <ItemData ItemOID="IT.SUPPDM.QORIG" Value="CRF"/>
    </ItemGroupData>
    <ItemGroupData ItemGroupOID="IG.SUPPDM" data:ItemGroupDataSeq="10">
      <ItemData ItemOID="IT.STUDYID" Value="CDISC01"/>
      <ItemData ItemOID="IT.RDOMAIN" Value="DM"/>
      <ItemData ItemOID="IT.USUBJID" Value="CDISC01.200001"/>
      <ItemData ItemOID="IT.SUPPDM.QNAM" Value="RACE3"/>
      <ItemData ItemOID="IT.SUPPDM.QLABEL" Value="Race 3"/>
      <ItemData ItemOID="IT.SUPPDM.QVAL" Value="WHITE"/>
      <ItemData ItemOID="IT.SUPPDM.QORIG" Value="CRF"/>
    </ItemGroupData>
    <ItemGroupData ItemGroupOID="IG.SUPPDM" data:ItemGroupDataSeq="11">
      <ItemData ItemOID="IT.STUDYID" Value="CDISC01"/>
      <ItemData ItemOID="IT.RDOMAIN" Value="DM"/>
      <ItemData ItemOID="IT.USUBJID" Value="CDISC01.200001"/>
      <ItemData ItemOID="IT.SUPPDM.QNAM" Value="RAND"/>
      <ItemData ItemOID="IT.SUPPDM.QLABEL" Value="Randomized Population Flag"/>
      <ItemData ItemOID="IT.SUPPDM.QVAL" Value="Y"/>
      <ItemData ItemOID="IT.SUPPDM.QORIG" Value="CRF"/>
    </ItemGroupData>
    <ItemGroupData ItemGroupOID="IG.SUPPDM" data:ItemGroupDataSeq="12">
      <ItemData ItemOID="IT.STUDYID" Value="CDISC01"/>
      <ItemData ItemOID="IT.RDOMAIN" Value="DM"/>
      <ItemData ItemOID="IT.USUBJID" Value="CDISC01.200001"/>
      <ItemData ItemOID="IT.SUPPDM.QNAM" Value="RANDNO"/>
      <ItemData ItemOID="IT.SUPPDM.QLABEL" Value="Randomization Number"/>
      <ItemData ItemOID="IT.SUPPDM.QVAL" Value="0009"/>
      <ItemData ItemOID="IT.SUPPDM.QORIG" Value="CRF"/>
    </ItemGroupData>
    <ItemGroupData ItemGroupOID="IG.SUPPDM" data:ItemGroupDataSeq="13">
      <ItemData ItemOID="IT.STUDYID" Value="CDISC01"/>
      <ItemData ItemOID="IT.RDOMAIN" Value="DM"/>
      <ItemData ItemOID="IT.USUBJID" Value="CDISC01.200001"/>
      <ItemData ItemOID="IT.SUPPDM.QNAM" Value="SAFETY"/>
      <ItemData ItemOID="IT.SUPPDM.QLABEL" Value="Safety Population Flag"/>
      <ItemData ItemOID="IT.SUPPDM.QVAL" Value="Y"/>
      <ItemData ItemOID="IT.SUPPDM.QORIG" Value="Derived"/>
      <ItemData ItemOID="IT.SUPPDM.QEVAL" Value="CLINICAL STUDY SPONSOR"/>
    </ItemGroupData>
    <ItemGroupData ItemGroupOID="IG.SUPPDM" data:ItemGroupDataSeq="14">
      <ItemData ItemOID="IT.STUDYID" Value="CDISC01"/>
      <ItemData ItemOID="IT.RDOMAIN" Value="DM"/>
      <ItemData ItemOID="IT.USUBJID" Value="CDISC01.200002"/>
      <ItemData ItemOID="IT.SUPPDM.QNAM" Value="RAND"/>
      <ItemData ItemOID="IT.SUPPDM.QLABEL" Value="Randomized Population Flag"/>
      <ItemData ItemOID="IT.SUPPDM.QVAL" Value="Y"/>
      <ItemData ItemOID="IT.SUPPDM.QORIG" Value="CRF"/>
    </ItemGroupData>
    <ItemGroupData ItemGroupOID="IG.SUPPDM" data:ItemGroupDataSeq="15">
      <ItemData ItemOID="IT.STUDYID" Value="CDISC01"/>
      <ItemData ItemOID="IT.RDOMAIN" Value="DM"/>
      <ItemData ItemOID="IT.USUBJID" Value="CDISC01.200002"/>
      <ItemData ItemOID="IT.SUPPDM.QNAM" Value="RANDNO"/>
      <ItemData ItemOID="IT.SUPPDM.QLABEL" Value="Randomization Number"/>
      <ItemData ItemOID="IT.SUPPDM.QVAL" Value="0010"/>
      <ItemData ItemOID="IT.SUPPDM.QORIG" Value="CRF"/>
    </ItemGroupData>
    <ItemGroupData ItemGroupOID="IG.SUPPDM" data:ItemGroupDataSeq="16">
      <ItemData ItemOID="IT.STUDYID" Value="CDISC01"/>
      <ItemData ItemOID="IT.RDOMAIN" Value="DM"/>
      <ItemData ItemOID="IT.USUBJID" Value="CDISC01.200002"/>
      <ItemData ItemOID="IT.SUPPDM.QNAM" Value="SAFETY"/>
      <ItemData ItemOID="IT.SUPPDM.QLABEL" Value="Safety Population Flag"/>
      <ItemData ItemOID="IT.SUPPDM.QVAL" Value="Y"/>
      <ItemData ItemOID="IT.SUPPDM.QORIG" Value="Derived"/>
      <ItemData ItemOID="IT.SUPPDM.QEVAL" Value="CLINICAL STUDY SPONSOR"/>
    </ItemGroupData>
    <ItemGroupData ItemGroupOID="IG.SUPPDM" data:ItemGroupDataSeq="17">
      <ItemData ItemOID="IT.STUDYID" Value="CDISC01"/>
      <ItemData ItemOID="IT.RDOMAIN" Value="DM"/>
      <ItemData ItemOID="IT.USUBJID" Value="CDISC01.200005"/>
      <ItemData ItemOID="IT.SUPPDM.QNAM" Value="RAND"/>
      <ItemData ItemOID="IT.SUPPDM.QLABEL" Value="Randomized Population Flag"/>
      <ItemData ItemOID="IT.SUPPDM.QVAL" Value="N"/>
      <ItemData ItemOID="IT.SUPPDM.QORIG" Value="CRF"/>
    </ItemGroupData>
    <ItemGroupData ItemGroupOID="IG.SUPPDM" data:ItemGroupDataSeq="18">
      <ItemData ItemOID="IT.STUDYID" Value="CDISC01"/>
      <ItemData ItemOID="IT.RDOMAIN" Value="DM"/>
      <ItemData ItemOID="IT.USUBJID" Value="CDISC01.200005"/>
      <ItemData ItemOID="IT.SUPPDM.QNAM" Value="SAFETY"/>
      <ItemData ItemOID="IT.SUPPDM.QLABEL" Value="Safety Population Flag"/>
      <ItemData ItemOID="IT.SUPPDM.QVAL" Value="N"/>
      <ItemData ItemOID="IT.SUPPDM.QORIG" Value="Derived"/>
      <ItemData ItemOID="IT.SUPPDM.QEVAL" Value="CLINICAL STUDY SPONSOR"/>
    </ItemGroupData>
  </ClinicalData>
</ODM>
