"Code","Codelist Code","Codelist Extensible (Yes/No)","Codelist Name","CDISC Submission Value","CDISC Synonym(s)","CDISC Definition","NCI Preferred Term","Standard and Date"
"C208382",,"No","Acute Physiology and Chronic Health Evaluation II Clinical Classification Parameter Code","APCH1PC","Acute Physiology and Chronic Health Evaluation II Clinical Classification Parameter Code","A parameter code codelist for the Acute Physiology and Chronic Health Evaluation II Clinical Classification (APACHE II) to support the calculation of total score in ADaM.","CDISC ADaM Acute Physiology and Chronic Health Evaluation II Clinical Classification Parameter Code Terminology","ADaM CT 2025-09-26"
"C209274","C208382",,"Acute Physiology and Chronic Health Evaluation II Clinical Classification Parameter Code","APCH1TPS","APCH1-A: Total Acute Physiology Score - Analysis","Acute Physiology and Chronic Health Evaluation II - Total acute physiology score used for analysis.","APACHE II - A: Total Acute Physiology Score - Analysis","ADaM CT 2025-09-26"
"C209275","C208382",,"Acute Physiology and Chronic Health Evaluation II Clinical Classification Parameter Code","APCH1TS","APCH1-Total APACHE II Score - Analysis","Acute Physiology and Chronic Health Evaluation II - Total score used for analysis.","APACHE II - Total APACHE II Score - Analysis","ADaM CT 2025-09-26"
"C208381",,"No","Acute Physiology and Chronic Health Evaluation II Clinical Classification Parameter Name","APCH1PN","Acute Physiology and Chronic Health Evaluation II Clinical Classification Parameter Name","A parameter name codelist for the Acute Physiology and Chronic Health Evaluation II Clinical Classification (APACHE II) to support the calculation of total score in ADaM.","CDISC ADaM Acute Physiology and Chronic Health Evaluation II Clinical Classification Parameter Name Terminology","ADaM CT 2025-09-26"
"C209274","C208381",,"Acute Physiology and Chronic Health Evaluation II Clinical Classification Parameter Name","APCH1-A: Total Acute Physiology Score - Analysis","APCH1-A: Total Acute Physiology Score - Analysis","Acute Physiology and Chronic Health Evaluation II - Total acute physiology score used for analysis.","APACHE II - A: Total Acute Physiology Score - Analysis","ADaM CT 2025-09-26"
"C209275","C208381",,"Acute Physiology and Chronic Health Evaluation II Clinical Classification Parameter Name","APCH1-Total APACHE II Score - Analysis","APCH1-Total APACHE II Score - Analysis","Acute Physiology and Chronic Health Evaluation II - Total score used for analysis.","APACHE II - Total APACHE II Score - Analysis","ADaM CT 2025-09-26"
"C204411",,"Yes","Analysis Stratum","STRATA","Analysis Stratum","A terminology codelist containing the stratum values for analysis.","CDISC ADaM Analysis Stratum Terminology","ADaM CT 2025-09-26"
"C25150","C204411",,"Analysis Stratum","AGE","Age","How long something has existed; elapsed time since birth. (NCI)","Age","ADaM CT 2025-09-26"
"C17049","C204411",,"Analysis Stratum","RACE",,"An arbitrary classification of a taxonomic group that is a division of the human species.","Race","ADaM CT 2025-09-26"
"C28421","C204411",,"Analysis Stratum","SEX",,"The assemblage of properties or qualities by which male is distinguished from female. [The NCI Thesaurus contains biomedical terminologies that NCI does not own or control. This concept contains gender-related content that does not comply with Executive Order 14168.]","Sex","ADaM CT 2025-09-26"
"C210051","C204411",,"Analysis Stratum","TOBACCO PRODUCT CATEGORY","Tobacco Product Category","A characterization or categorization of the tobacco product.","Tobacco Product Category","ADaM CT 2025-09-26"
"C210052","C204411",,"Analysis Stratum","TOBACCO PRODUCT USE STATUS POST-TRANSITION",,"The usage status of a tobacco product(s) after a change in use of any tobacco product(s).","Post-Transition Tobacco Product Use Status","ADaM CT 2025-09-26"
"C210053","C204411",,"Analysis Stratum","TOBACCO PRODUCT USE STATUS PRE-TRANSITION",,"The usage status of a tobacco product(s) prior to a change in use of any tobacco product(s).","Pre-Transition Tobacco Product Use Status","ADaM CT 2025-09-26"
"C210042","C204411",,"Analysis Stratum","TOBACCO PRODUCT USE STATUS",,"The condition or status of usage of a tobacco product(s).","Tobacco Product Use Status","ADaM CT 2025-09-26"
"C210054","C204411",,"Analysis Stratum","TOBACCO PRODUCT USE TRANSITION TYPE",,"A characterization or categorization of the change from one tobacco product use state to another.","Tobacco Product Use Transition Type","ADaM CT 2025-09-26"
"C210055","C204411",,"Analysis Stratum","YEAR",,"A year period of time, which may be historical or projected, that is used for the purpose of defining a projection period.","Year Projection Period","ADaM CT 2025-09-26"
"C187458",,"No","Craig Handicap Assessment and Reporting Technique-Short Form Questionnaires Parameter Code","CHSFPC","Craig Handicap Assessment and Reporting Technique-Short Form Questionnaires Parameter Code","A parameter code codelist for the Craig Handicap Assessment and Reporting Technique-Short Form Questionnaires (CHART-SF) to support the calculation of subscores and total score for the Interview and Paper Versions in ADaM.","CDISC ADaM Craig Handicap Assessment and Reporting Technique-Short Form Questionnaires Parameter Code Terminology","ADaM CT 2025-09-26"
"C187467","C187458",,"Craig Handicap Assessment and Reporting Technique-Short Form Questionnaires Parameter Code","CHSF01A","CHSF-Paid Personal Care per Day","Craig Handicap Assessment and Reporting Technique-Short Form - How many hours in a typical 24-hour day do you have someone with you to provide physical assistance for personal care activities such as eating, bathing, dressing, toileting and mobility? (hours paid assistance).","Craig Handicap Assessment and Reporting Technique-Short Form - Paid Personal Care per Day","ADaM CT 2025-09-26"
"C187468","C187458",,"Craig Handicap Assessment and Reporting Technique-Short Form Questionnaires Parameter Code","CHSF01B","CHSF-Unpaid Personal Care per Day","Craig Handicap Assessment and Reporting Technique-Short Form - How many hours in a typical 24-hour day do you have someone with you to provide physical assistance for personal care activities such as eating, bathing, dressing, toileting and mobility? hours unpaid (family, others).","Craig Handicap Assessment and Reporting Technique-Short Form - Unpaid Personal Care per Day","ADaM CT 2025-09-26"
"C187469","C187458",,"Craig Handicap Assessment and Reporting Technique-Short Form Questionnaires Parameter Code","CHSF02","CHSF-Home Cognitive Assistance per Day","Craig Handicap Assessment and Reporting Technique-Short Form - How much time is someone with you in your home to assist you with activities that require remembering, decision making, or judgment?","Craig Handicap Assessment and Reporting Technique-Short Form - Home Cognitive Assistance per Day","ADaM CT 2025-09-26"
"C187470","C187458",,"Craig Handicap Assessment and Reporting Technique-Short Form Questionnaires Parameter Code","CHSF03","CHSF-Away Cognitive Assistance per Day","Craig Handicap Assessment and Reporting Technique-Short Form - How much of the time is someone with you to help you with remembering, decision making, or judgment when you go away from your home?","Craig Handicap Assessment and Reporting Technique-Short Form - Away Cognitive Assistance per Day","ADaM CT 2025-09-26"
"C187471","C187458",,"Craig Handicap Assessment and Reporting Technique-Short Form Questionnaires Parameter Code","CHSF04","CHSF-Hours Out of Bed per Day","Craig Handicap Assessment and Reporting Technique-Short Form - On a typical day, how many hours are you out of bed?","Craig Handicap Assessment and Reporting Technique-Short Form - Hours Out of Bed per Day","ADaM CT 2025-09-26"
"C187472","C187458",,"Craig Handicap Assessment and Reporting Technique-Short Form Questionnaires Parameter Code","CHSF05","CHSF-Days Out of the House per Week","Craig Handicap Assessment and Reporting Technique-Short Form - In a typical week, how many days do you get out of your house and go somewhere?","Craig Handicap Assessment and Reporting Technique-Short Form - Days Out of the House per Week","ADaM CT 2025-09-26"
"C187473","C187458",,"Craig Handicap Assessment and Reporting Technique-Short Form Questionnaires Parameter Code","CHSF06","CHSF-Nights Away From Home Last Year","Craig Handicap Assessment and Reporting Technique-Short Form - In the last year, how many nights have you spent away from your home?","Craig Handicap Assessment and Reporting Technique-Short Form - Nights Away From Home Last Year","ADaM CT 2025-09-26"
"C187474","C187458",,"Craig Handicap Assessment and Reporting Technique-Short Form Questionnaires Parameter Code","CHSF07A","CHSF-Hours of Paid Work per Week","Craig Handicap Assessment and Reporting Technique-Short Form - How many hours per week do you spend working in a job for which you get paid?","Craig Handicap Assessment and Reporting Technique-Short Form - Hours of Paid Work per Week","ADaM CT 2025-09-26"
"C187475","C187458",,"Craig Handicap Assessment and Reporting Technique-Short Form Questionnaires Parameter Code","CHSF07B","CHSF-Occupation of Paid Work","Craig Handicap Assessment and Reporting Technique-Short Form - How many hours per week do you spend working in a job for which you get paid? (occupation).","Craig Handicap Assessment and Reporting Technique-Short Form - Occupation of Paid Work","ADaM CT 2025-09-26"
"C187476","C187458",,"Craig Handicap Assessment and Reporting Technique-Short Form Questionnaires Parameter Code","CHSF08","CHSF-Hours of Schoolwork per Week","Craig Handicap Assessment and Reporting Technique-Short Form - How many hours per week do you spend in school working toward a degree or in an accredited technical training program?","Craig Handicap Assessment and Reporting Technique-Short Form - Hours of Schoolwork per Week","ADaM CT 2025-09-26"
"C187477","C187458",,"Craig Handicap Assessment and Reporting Technique-Short Form Questionnaires Parameter Code","CHSF09","CHSF-Hours of Homemaking per Week","Craig Handicap Assessment and Reporting Technique-Short Form - How many hours per week do you spend in active homemaking including parenting, housekeeping, and food preparation?","Craig Handicap Assessment and Reporting Technique-Short Form - Hours of Homemaking per Week","ADaM CT 2025-09-26"
"C187478","C187458",,"Craig Handicap Assessment and Reporting Technique-Short Form Questionnaires Parameter Code","CHSF10","CHSF-Hours of Home Maintenance per Week","Craig Handicap Assessment and Reporting Technique-Short Form - How many hours per week do you spend in home maintenance activities such as gardening, house repairs or home improvement?","Craig Handicap Assessment and Reporting Technique-Short Form - Hours of Home Maintenance per Week","ADaM CT 2025-09-26"
"C187479","C187458",,"Craig Handicap Assessment and Reporting Technique-Short Form Questionnaires Parameter Code","CHSF11","CHSF-Hours of Recreation per Week","Craig Handicap Assessment and Reporting Technique-Short Form - How many hours per week do you spend in recreational activities such as sports, exercise, playing cards, or going to movies?","Craig Handicap Assessment and Reporting Technique-Short Form - Hours of Recreation per Week","ADaM CT 2025-09-26"
"C187480","C187458",,"Craig Handicap Assessment and Reporting Technique-Short Form Questionnaires Parameter Code","CHSF12","CHSF-Number of People You Live With","Craig Handicap Assessment and Reporting Technique-Short Form - How many people do you live with?","Craig Handicap Assessment and Reporting Technique-Short Form - Number of People You Live With","ADaM CT 2025-09-26"
"C187481","C187458",,"Craig Handicap Assessment and Reporting Technique-Short Form Questionnaires Parameter Code","CHSF13","CHSF-Live With Spouse or Signif Other","Craig Handicap Assessment and Reporting Technique-Short Form - Is one of them your spouse or significant other?","Craig Handicap Assessment and Reporting Technique-Short Form - Live With Spouse or Significant Other","ADaM CT 2025-09-26"
"C187482","C187458",,"Craig Handicap Assessment and Reporting Technique-Short Form Questionnaires Parameter Code","CHSF14","CHSF-Number of Relatives You Live With","Craig Handicap Assessment and Reporting Technique-Short Form - Of the people you live with how many are relatives?","Craig Handicap Assessment and Reporting Technique-Short Form - Number of Relatives You Live With","ADaM CT 2025-09-26"
"C187483","C187458",,"Craig Handicap Assessment and Reporting Technique-Short Form Questionnaires Parameter Code","CHSF15","CHSF-Associates Contacted per Month","Craig Handicap Assessment and Reporting Technique-Short Form - How many business or organizational associates do you visit, phone, or write to at least once a month?","Craig Handicap Assessment and Reporting Technique-Short Form - Associates Contacted per Month","ADaM CT 2025-09-26"
"C187484","C187458",,"Craig Handicap Assessment and Reporting Technique-Short Form Questionnaires Parameter Code","CHSF16","CHSF-Friends Contacted per Month","Craig Handicap Assessment and Reporting Technique-Short Form - How many friends do you visit, phone, or write to at least once a month?","Craig Handicap Assessment and Reporting Technique-Short Form - Friends Contacted per Month","ADaM CT 2025-09-26"
"C187485","C187458",,"Craig Handicap Assessment and Reporting Technique-Short Form Questionnaires Parameter Code","CHSF17","CHSF-Strangers Spoke with Last Month","Craig Handicap Assessment and Reporting Technique-Short Form - With how many strangers have you initiated a conversation in the last month?","Craig Handicap Assessment and Reporting Technique-Short Form - Strangers Spoke with Last Month","ADaM CT 2025-09-26"
"C187486","C187458",,"Craig Handicap Assessment and Reporting Technique-Short Form Questionnaires Parameter Code","CHSF18","CHSF-Combined Household Income Last Yr","Craig Handicap Assessment and Reporting Technique-Short Form - Approximately what was the combined annual income, in the last year, of all family members in your household?","Craig Handicap Assessment and Reporting Technique-Short Form - Combined Household Income Last Year","ADaM CT 2025-09-26"
"C187487","C187458",,"Craig Handicap Assessment and Reporting Technique-Short Form Questionnaires Parameter Code","CHSF19","CHSF-Medical Care Expenses Last Year","Craig Handicap Assessment and Reporting Technique-Short Form - Approximately how much did you pay last year for medical care expenses?","Craig Handicap Assessment and Reporting Technique-Short Form - Medical Care Expenses Last Year","ADaM CT 2025-09-26"
"C187489","C187458",,"Craig Handicap Assessment and Reporting Technique-Short Form Questionnaires Parameter Code","CHSFCS","CHSF-Cognitive Independence Subscore-Analysis","Craig Handicap Assessment and Reporting Technique-Short Form - Cognitive independence subscore used for analysis.","Craig Handicap Assessment and Reporting Technique-Short Form - Cognitive Independence Subscore for Analysis","ADaM CT 2025-09-26"
"C187493","C187458",,"Craig Handicap Assessment and Reporting Technique-Short Form Questionnaires Parameter Code","CHSFES","CHSF-Economic Self-Sufficiency Subscore-Analysis","Craig Handicap Assessment and Reporting Technique-Short Form - Economic self-sufficiency subscore used for analysis.","Craig Handicap Assessment and Reporting Technique-Short Form - Economic Self-Sufficiency Subscore for Analysis","ADaM CT 2025-09-26"
"C187490","C187458",,"Craig Handicap Assessment and Reporting Technique-Short Form Questionnaires Parameter Code","CHSFMS","CHSF-Mobility Subscore-Analysis","Craig Handicap Assessment and Reporting Technique-Short Form - Mobility subscore used for analysis.","Craig Handicap Assessment and Reporting Technique-Short Form - Mobility Subscore for Analysis","ADaM CT 2025-09-26"
"C187491","C187458",,"Craig Handicap Assessment and Reporting Technique-Short Form Questionnaires Parameter Code","CHSFOS","CHSF-Occupation Subscore-Analysis","Craig Handicap Assessment and Reporting Technique-Short Form - Occupation subscore used for analysis.","Craig Handicap Assessment and Reporting Technique-Short Form - Occupation Subscore for Analysis","ADaM CT 2025-09-26"
"C187488","C187458",,"Craig Handicap Assessment and Reporting Technique-Short Form Questionnaires Parameter Code","CHSFPS","CHSF-Physical Independence Subscore-Analysis","Craig Handicap Assessment and Reporting Technique-Short Form - Physical independence subscore used for analysis.","Craig Handicap Assessment and Reporting Technique-Short Form - Physical Independence Subscore for Analysis","ADaM CT 2025-09-26"
"C187492","C187458",,"Craig Handicap Assessment and Reporting Technique-Short Form Questionnaires Parameter Code","CHSFSS","CHSF-Social Integration Subscore-Analysis","Craig Handicap Assessment and Reporting Technique-Short Form - Social integration subscore used for analysis.","Craig Handicap Assessment and Reporting Technique-Short Form - Social Integration Subscore for Analysis","ADaM CT 2025-09-26"
"C187494","C187458",,"Craig Handicap Assessment and Reporting Technique-Short Form Questionnaires Parameter Code","CHSFTS","CHSF-Total Score-Analysis","Craig Handicap Assessment and Reporting Technique-Short Form - Total score used for analysis.","Craig Handicap Assessment and Reporting Technique-Short Form - Total Score for Analysis","ADaM CT 2025-09-26"
"C187457",,"No","Craig Handicap Assessment and Reporting Technique-Short Form Questionnaires Parameter Name","CHSFPN","Craig Handicap Assessment and Reporting Technique-Short Form Questionnaires Parameter Name","A parameter name codelist for the Craig Handicap Assessment and Reporting Technique-Short Form Questionnaires (CHART-SF) to support the calculation of subscores and total score for the Interview and Paper Versions in ADaM.","CDISC ADaM Craig Handicap Assessment and Reporting Technique-Short Form Questionnaires Parameter Name Terminology","ADaM CT 2025-09-26"
"C187483","C187457",,"Craig Handicap Assessment and Reporting Technique-Short Form Questionnaires Parameter Name","CHSF-Associates Contacted per Month","CHSF-Associates Contacted per Month","Craig Handicap Assessment and Reporting Technique-Short Form - How many business or organizational associates do you visit, phone, or write to at least once a month?","Craig Handicap Assessment and Reporting Technique-Short Form - Associates Contacted per Month","ADaM CT 2025-09-26"
"C187470","C187457",,"Craig Handicap Assessment and Reporting Technique-Short Form Questionnaires Parameter Name","CHSF-Away Cognitive Assistance per Day","CHSF-Away Cognitive Assistance per Day","Craig Handicap Assessment and Reporting Technique-Short Form - How much of the time is someone with you to help you with remembering, decision making, or judgment when you go away from your home?","Craig Handicap Assessment and Reporting Technique-Short Form - Away Cognitive Assistance per Day","ADaM CT 2025-09-26"
"C187489","C187457",,"Craig Handicap Assessment and Reporting Technique-Short Form Questionnaires Parameter Name","CHSF-Cognitive Independence Subscore-Analysis","CHSF-Cognitive Independence Subscore-Analysis","Craig Handicap Assessment and Reporting Technique-Short Form - Cognitive independence subscore used for analysis.","Craig Handicap Assessment and Reporting Technique-Short Form - Cognitive Independence Subscore for Analysis","ADaM CT 2025-09-26"
"C187486","C187457",,"Craig Handicap Assessment and Reporting Technique-Short Form Questionnaires Parameter Name","CHSF-Combined Household Income Last Yr","CHSF-Combined Household Income Last Yr","Craig Handicap Assessment and Reporting Technique-Short Form - Approximately what was the combined annual income, in the last year, of all family members in your household?","Craig Handicap Assessment and Reporting Technique-Short Form - Combined Household Income Last Year","ADaM CT 2025-09-26"
"C187472","C187457",,"Craig Handicap Assessment and Reporting Technique-Short Form Questionnaires Parameter Name","CHSF-Days Out of the House per Week","CHSF-Days Out of the House per Week","Craig Handicap Assessment and Reporting Technique-Short Form - In a typical week, how many days do you get out of your house and go somewhere?","Craig Handicap Assessment and Reporting Technique-Short Form - Days Out of the House per Week","ADaM CT 2025-09-26"
"C187493","C187457",,"Craig Handicap Assessment and Reporting Technique-Short Form Questionnaires Parameter Name","CHSF-Economic Self-Sufficiency Subscore-Analysis","CHSF-Economic Self-Sufficiency Subscore-Analysis","Craig Handicap Assessment and Reporting Technique-Short Form - Economic self-sufficiency subscore used for analysis.","Craig Handicap Assessment and Reporting Technique-Short Form - Economic Self-Sufficiency Subscore for Analysis","ADaM CT 2025-09-26"
"C187484","C187457",,"Craig Handicap Assessment and Reporting Technique-Short Form Questionnaires Parameter Name","CHSF-Friends Contacted per Month","CHSF-Friends Contacted per Month","Craig Handicap Assessment and Reporting Technique-Short Form - How many friends do you visit, phone, or write to at least once a month?","Craig Handicap Assessment and Reporting Technique-Short Form - Friends Contacted per Month","ADaM CT 2025-09-26"
"C187469","C187457",,"Craig Handicap Assessment and Reporting Technique-Short Form Questionnaires Parameter Name","CHSF-Home Cognitive Assistance per Day","CHSF-Home Cognitive Assistance per Day","Craig Handicap Assessment and Reporting Technique-Short Form - How much time is someone with you in your home to assist you with activities that require remembering, decision making, or judgment?","Craig Handicap Assessment and Reporting Technique-Short Form - Home Cognitive Assistance per Day","ADaM CT 2025-09-26"
"C187478","C187457",,"Craig Handicap Assessment and Reporting Technique-Short Form Questionnaires Parameter Name","CHSF-Hours of Home Maintenance per Week","CHSF-Hours of Home Maintenance per Week","Craig Handicap Assessment and Reporting Technique-Short Form - How many hours per week do you spend in home maintenance activities such as gardening, house repairs or home improvement?","Craig Handicap Assessment and Reporting Technique-Short Form - Hours of Home Maintenance per Week","ADaM CT 2025-09-26"
"C187477","C187457",,"Craig Handicap Assessment and Reporting Technique-Short Form Questionnaires Parameter Name","CHSF-Hours of Homemaking per Week","CHSF-Hours of Homemaking per Week","Craig Handicap Assessment and Reporting Technique-Short Form - How many hours per week do you spend in active homemaking including parenting, housekeeping, and food preparation?","Craig Handicap Assessment and Reporting Technique-Short Form - Hours of Homemaking per Week","ADaM CT 2025-09-26"
"C187474","C187457",,"Craig Handicap Assessment and Reporting Technique-Short Form Questionnaires Parameter Name","CHSF-Hours of Paid Work per Week","CHSF-Hours of Paid Work per Week","Craig Handicap Assessment and Reporting Technique-Short Form - How many hours per week do you spend working in a job for which you get paid?","Craig Handicap Assessment and Reporting Technique-Short Form - Hours of Paid Work per Week","ADaM CT 2025-09-26"
"C187479","C187457",,"Craig Handicap Assessment and Reporting Technique-Short Form Questionnaires Parameter Name","CHSF-Hours of Recreation per Week","CHSF-Hours of Recreation per Week","Craig Handicap Assessment and Reporting Technique-Short Form - How many hours per week do you spend in recreational activities such as sports, exercise, playing cards, or going to movies?","Craig Handicap Assessment and Reporting Technique-Short Form - Hours of Recreation per Week","ADaM CT 2025-09-26"
"C187476","C187457",,"Craig Handicap Assessment and Reporting Technique-Short Form Questionnaires Parameter Name","CHSF-Hours of Schoolwork per Week","CHSF-Hours of Schoolwork per Week","Craig Handicap Assessment and Reporting Technique-Short Form - How many hours per week do you spend in school working toward a degree or in an accredited technical training program?","Craig Handicap Assessment and Reporting Technique-Short Form - Hours of Schoolwork per Week","ADaM CT 2025-09-26"
"C187471","C187457",,"Craig Handicap Assessment and Reporting Technique-Short Form Questionnaires Parameter Name","CHSF-Hours Out of Bed per Day","CHSF-Hours Out of Bed per Day","Craig Handicap Assessment and Reporting Technique-Short Form - On a typical day, how many hours are you out of bed?","Craig Handicap Assessment and Reporting Technique-Short Form - Hours Out of Bed per Day","ADaM CT 2025-09-26"
"C187481","C187457",,"Craig Handicap Assessment and Reporting Technique-Short Form Questionnaires Parameter Name","CHSF-Live With Spouse or Signif Other","CHSF-Live With Spouse or Signif Other","Craig Handicap Assessment and Reporting Technique-Short Form - Is one of them your spouse or significant other?","Craig Handicap Assessment and Reporting Technique-Short Form - Live With Spouse or Significant Other","ADaM CT 2025-09-26"
"C187487","C187457",,"Craig Handicap Assessment and Reporting Technique-Short Form Questionnaires Parameter Name","CHSF-Medical Care Expenses Last Year","CHSF-Medical Care Expenses Last Year","Craig Handicap Assessment and Reporting Technique-Short Form - Approximately how much did you pay last year for medical care expenses?","Craig Handicap Assessment and Reporting Technique-Short Form - Medical Care Expenses Last Year","ADaM CT 2025-09-26"
"C187490","C187457",,"Craig Handicap Assessment and Reporting Technique-Short Form Questionnaires Parameter Name","CHSF-Mobility Subscore-Analysis","CHSF-Mobility Subscore-Analysis","Craig Handicap Assessment and Reporting Technique-Short Form - Mobility subscore used for analysis.","Craig Handicap Assessment and Reporting Technique-Short Form - Mobility Subscore for Analysis","ADaM CT 2025-09-26"
"C187473","C187457",,"Craig Handicap Assessment and Reporting Technique-Short Form Questionnaires Parameter Name","CHSF-Nights Away From Home Last Year","CHSF-Nights Away From Home Last Year","Craig Handicap Assessment and Reporting Technique-Short Form - In the last year, how many nights have you spent away from your home?","Craig Handicap Assessment and Reporting Technique-Short Form - Nights Away From Home Last Year","ADaM CT 2025-09-26"
"C187480","C187457",,"Craig Handicap Assessment and Reporting Technique-Short Form Questionnaires Parameter Name","CHSF-Number of People You Live With","CHSF-Number of People You Live With","Craig Handicap Assessment and Reporting Technique-Short Form - How many people do you live with?","Craig Handicap Assessment and Reporting Technique-Short Form - Number of People You Live With","ADaM CT 2025-09-26"
"C187482","C187457",,"Craig Handicap Assessment and Reporting Technique-Short Form Questionnaires Parameter Name","CHSF-Number of Relatives You Live With","CHSF-Number of Relatives You Live With","Craig Handicap Assessment and Reporting Technique-Short Form - Of the people you live with how many are relatives?","Craig Handicap Assessment and Reporting Technique-Short Form - Number of Relatives You Live With","ADaM CT 2025-09-26"
"C187475","C187457",,"Craig Handicap Assessment and Reporting Technique-Short Form Questionnaires Parameter Name","CHSF-Occupation of Paid Work","CHSF-Occupation of Paid Work","Craig Handicap Assessment and Reporting Technique-Short Form - How many hours per week do you spend working in a job for which you get paid? (occupation).","Craig Handicap Assessment and Reporting Technique-Short Form - Occupation of Paid Work","ADaM CT 2025-09-26"
"C187491","C187457",,"Craig Handicap Assessment and Reporting Technique-Short Form Questionnaires Parameter Name","CHSF-Occupation Subscore-Analysis","CHSF-Occupation Subscore-Analysis","Craig Handicap Assessment and Reporting Technique-Short Form - Occupation subscore used for analysis.","Craig Handicap Assessment and Reporting Technique-Short Form - Occupation Subscore for Analysis","ADaM CT 2025-09-26"
"C187467","C187457",,"Craig Handicap Assessment and Reporting Technique-Short Form Questionnaires Parameter Name","CHSF-Paid Personal Care per Day","CHSF-Paid Personal Care per Day","Craig Handicap Assessment and Reporting Technique-Short Form - How many hours in a typical 24-hour day do you have someone with you to provide physical assistance for personal care activities such as eating, bathing, dressing, toileting and mobility? (hours paid assistance).","Craig Handicap Assessment and Reporting Technique-Short Form - Paid Personal Care per Day","ADaM CT 2025-09-26"
"C187488","C187457",,"Craig Handicap Assessment and Reporting Technique-Short Form Questionnaires Parameter Name","CHSF-Physical Independence Subscore-Analysis","CHSF-Physical Independence Subscore-Analysis","Craig Handicap Assessment and Reporting Technique-Short Form - Physical independence subscore used for analysis.","Craig Handicap Assessment and Reporting Technique-Short Form - Physical Independence Subscore for Analysis","ADaM CT 2025-09-26"
"C187492","C187457",,"Craig Handicap Assessment and Reporting Technique-Short Form Questionnaires Parameter Name","CHSF-Social Integration Subscore-Analysis","CHSF-Social Integration Subscore-Analysis","Craig Handicap Assessment and Reporting Technique-Short Form - Social integration subscore used for analysis.","Craig Handicap Assessment and Reporting Technique-Short Form - Social Integration Subscore for Analysis","ADaM CT 2025-09-26"
"C187485","C187457",,"Craig Handicap Assessment and Reporting Technique-Short Form Questionnaires Parameter Name","CHSF-Strangers Spoke with Last Month","CHSF-Strangers Spoke with Last Month","Craig Handicap Assessment and Reporting Technique-Short Form - With how many strangers have you initiated a conversation in the last month?","Craig Handicap Assessment and Reporting Technique-Short Form - Strangers Spoke with Last Month","ADaM CT 2025-09-26"
"C187494","C187457",,"Craig Handicap Assessment and Reporting Technique-Short Form Questionnaires Parameter Name","CHSF-Total Score-Analysis","CHSF-Total Score-Analysis","Craig Handicap Assessment and Reporting Technique-Short Form - Total score used for analysis.","Craig Handicap Assessment and Reporting Technique-Short Form - Total Score for Analysis","ADaM CT 2025-09-26"
"C187468","C187457",,"Craig Handicap Assessment and Reporting Technique-Short Form Questionnaires Parameter Name","CHSF-Unpaid Personal Care per Day","CHSF-Unpaid Personal Care per Day","Craig Handicap Assessment and Reporting Technique-Short Form - How many hours in a typical 24-hour day do you have someone with you to provide physical assistance for personal care activities such as eating, bathing, dressing, toileting and mobility? hours unpaid (family, others).","Craig Handicap Assessment and Reporting Technique-Short Form - Unpaid Personal Care per Day","ADaM CT 2025-09-26"
"C81223",,"No","Date Imputation Flag","DATEFL","Date Imputation Flag","Date Imputation Flag: Indicates the level of imputation reflected in a date value.","CDISC ADaM Date Imputation Flag Terminology","ADaM CT 2025-09-26"
"C81212","C81223",,"Date Imputation Flag","D",,"Day Imputed: Day is imputed.","Day Imputed","ADaM CT 2025-09-26"
"C81211","C81223",,"Date Imputation Flag","M",,"Month Imputed: Month and day are imputed.","Month Day Imputed","ADaM CT 2025-09-26"
"C81210","C81223",,"Date Imputation Flag","Y",,"Year Imputed: Entire date (year, month and day) is imputed.","Year Month Day Imputed","ADaM CT 2025-09-26"
"C81224",,"Yes","Derivation Type","DTYPE","Derivation Type","Derivation Type: Analysis value derivation method.","CDISC ADaM Derivation Type Terminology","ADaM CT 2025-09-26"
"C81209","C81224",,"Derivation Type","AVERAGE","Average","A data derivation or imputation technique which sets the analysis value on the record to the subject's average value over a defined set of records.","Average of Value Derivation Technique","ADaM CT 2025-09-26"
"C92225","C81224",,"Derivation Type","BC","Best Case","A data derivation or imputation technique which sets the analysis value on the record to the best possible outcome.","Best Case Imputation Technique","ADaM CT 2025-09-26"
"C81201","C81224",,"Derivation Type","BLOCF","Baseline Observation Carried Forward","A data derivation or imputation technique which sets the analysis value on the record to the subject's non-missing baseline observation.","Baseline Observation Carried Forward Imputation Technique","ADaM CT 2025-09-26"
"C132340","C81224",,"Derivation Type","BOC","Best Observed Case","A data derivation or imputation technique which sets the analysis value on the record to the best outcome recorded within a subject.","Best Observed Case Imputation Technique","ADaM CT 2025-09-26"
"C92226","C81224",,"Derivation Type","BOCF","Best Observation Carried Forward","A data derivation or imputation technique which sets the analysis value on the record to the subject's previous best-case non-missing value.","Best Observation Carried Forward Imputation Technique","ADaM CT 2025-09-26"
"C184383","C81224",,"Derivation Type","COPY",,"A technique that uses assignment logic to duplicate an analysis value to be used in additional evaluations.","Copy Duplication Imputation Technique","ADaM CT 2025-09-26"
"C139176","C81224",,"Derivation Type","EXTRAP","Extrapolation","A data derivation or imputation technique which sets the analysis value on the record to an estimated or assumed value based on extending a known sequence of values. This category also includes conditionally branched questions where an actual response is imputed.","Extrapolation Imputation Technique","ADaM CT 2025-09-26"
"C170546","C81224",,"Derivation Type","HALFLLOQ","One Half of Lower Limit of Quantification","A data derivation or imputation technique which sets the analysis value on the record to one half of the lower limit of quantification of a test.","One Half of Lower Limit of Quantification Derivation Technique","ADaM CT 2025-09-26"
"C81208","C81224",,"Derivation Type","INTERP","Interpolation","A data derivation or imputation technique which sets the analysis value on the record to a function of known values to estimate a value within the range.","Interpolation Imputation Technique","ADaM CT 2025-09-26"
"C105701","C81224",,"Derivation Type","LLOD","Lower Limit of Detection","A data derivation or imputation technique which sets the analysis value on the record to the lower limit of detection of a test.","Detection Limit","ADaM CT 2025-09-26"
"C170543","C81224",,"Derivation Type","LLOQ","Lower Limit of Quantification","A data derivation or imputation technique which sets the analysis value on the record to the lower limit of quantification of a test.","Lower Limit of Quantification Derivation Technique","ADaM CT 2025-09-26"
"C81198","C81224",,"Derivation Type","LOCF","Last Observation Carried Forward","A data derivation or imputation technique which sets the analysis value on the record to the subject's previous non-missing value.","Last Observation Carried Forward Imputation Technique","ADaM CT 2025-09-26"
"C132341","C81224",,"Derivation Type","LOV","Last Observed Value","A data derivation or imputation technique which sets the analysis value on the record to the subject's last recorded non-missing observation.","Last Observed Value Imputation Technique","ADaM CT 2025-09-26"
"C132342","C81224",,"Derivation Type","LVPD","Last Value Prior to Dosing","A data derivation or imputation technique which sets the analysis value on the record to the subject's last observed value prior to the start of study treatment.","Last Value Prior to Dosing Imputation Technique","ADaM CT 2025-09-26"
"C82868","C81224",,"Derivation Type","MAXIMUM","Maximum","A data derivation or imputation technique which sets the analysis value on the record to the subject's maximum value over a defined set of records.","Maximum Value Derivation Technique","ADaM CT 2025-09-26"
"C82867","C81224",,"Derivation Type","MINIMUM","Minimum","A data derivation or imputation technique which sets the analysis value on the record to the subject's minimum value over a defined set of records.","Minimum Value Derivation Technique","ADaM CT 2025-09-26"
"C53331","C81224",,"Derivation Type","ML","Maximum Likelihood","A data derivation or imputation technique which sets the analysis value on the record to the estimate that maximizes the probability of observing what has in fact been observed.","Maximum Likelihood Estimation","ADaM CT 2025-09-26"
"C81204","C81224",,"Derivation Type","MOTH","Mean of Other Group","A data derivation or imputation technique which sets the analysis value on the record to the mean value from a comparator or reference group.","Mean of Other Group Imputation Technique","ADaM CT 2025-09-26"
"C81207","C81224",,"Derivation Type","MOV","Mean Observed Value in a Group","A data derivation or imputation technique which sets the analysis value on the record to the mean value observed in a group of subjects.","Mean Observed Value in a Group Imputation Technique","ADaM CT 2025-09-26"
"C204584","C81224",,"Derivation Type","NOCB","Next Observation Carried Backward; Next Value Carried Backward; NVCB","A data derivation or imputation technique which sets the analysis value on the record to the subject's next non-missing value.","Next Observation Carried Backward Imputation Technique","ADaM CT 2025-09-26"
"C170545","C81224",,"Derivation Type","PHANTOM","Phantom Record","A technique that creates a record with a missing analysis value when there is no observed record for a given analysis visit or analysis timepoint.","Phantom Record Imputation Technique","ADaM CT 2025-09-26"
"C81205","C81224",,"Derivation Type","POCF","Penultimate Observation Carried Forward","A data derivation or imputation technique which sets the analysis value on the record to the subject's next-to-last non-missing value.","Penultimate Observation Carried Forward Imputation Technique","ADaM CT 2025-09-26"
"C81200","C81224",,"Derivation Type","SOCF","Screening Observation Carried Forward","A data derivation or imputation technique which sets the analysis value on the record to the subject's non-missing screening observation.","Screening Observation Carried Forward Imputation Technique","ADaM CT 2025-09-26"
"C174264","C81224",,"Derivation Type","ULOD","Upper Limit of Detection","A data derivation or imputation technique which sets the analysis value on the record to the upper limit of detection of a test.","Upper Limit of Detection Imputation Technique","ADaM CT 2025-09-26"
"C170544","C81224",,"Derivation Type","ULOQ","Upper Limit of Quantification","A data derivation or imputation technique which sets the analysis value on the record to the upper limit of quantification of a test.","Upper Limit of Quantification Derivation Technique","ADaM CT 2025-09-26"
"C81203","C81224",,"Derivation Type","WC","Worst Case","A data derivation or imputation technique which sets the analysis value on the record to the worst possible outcome.","Worst Case Imputation Technique","ADaM CT 2025-09-26"
"C132343","C81224",,"Derivation Type","WOC","Worst Observed Case","A data derivation or imputation technique which sets the analysis value on the record to the worst recorded outcome within a subject.","Worst Observed Case Imputation Technique","ADaM CT 2025-09-26"
"C81199","C81224",,"Derivation Type","WOCF","Worst Observed Value Carried Forward","A data derivation or imputation technique which sets the analysis value on the record to the subject's worst-case non-missing observation.","Worst Observation Carried Forward Imputation Technique","ADaM CT 2025-09-26"
"C81206","C81224",,"Derivation Type","WOV","Worst Observed Value in a Group","A data derivation or imputation technique which sets the analysis value on the record to the worst value observed in a group of subjects.","Worst Observed Value in a Group Imputation Technique","ADaM CT 2025-09-26"
"C172334",,"No","Generalized Anxiety Disorder - 7 Version 2 Questionnaire Parameter Code","GAD02PC","Generalized Anxiety Disorder - 7 Version 2 Questionnaire Parameter Code","A parameter code codelist for the Generalized Anxiety Disorder - 7 Version 2 Questionnaire (GAD-7 V2) to support the calculation of total score in ADaM.","CDISC ADaM Generalized Anxiety Disorder-7 Version 2 Questionnaire Parameter Code Terminology","ADaM CT 2025-09-26"
"C172451","C172334",,"Generalized Anxiety Disorder - 7 Version 2 Questionnaire Parameter Code","GAD02TS","GAD02-Total Score - Analysis","Generalized Anxiety Disorder - 7 Version 2 - Total score used for analysis.","Generalized Anxiety Disorder - 7 Version 2 - Total Score for Analysis","ADaM CT 2025-09-26"
"C172335",,"No","Generalized Anxiety Disorder - 7 Version 2 Questionnaire Parameter Name","GAD02PN","Generalized Anxiety Disorder - 7 Version 2 Questionnaire Parameter Name","A parameter name codelist for the Generalized Anxiety Disorder - 7 Version 2 Questionnaire (GAD-7 V2) to support the calculation of total score in ADaM.","CDISC ADaM Generalized Anxiety Disorder-7 Version 2 Questionnaire Parameter Name Terminology","ADaM CT 2025-09-26"
"C172451","C172335",,"Generalized Anxiety Disorder - 7 Version 2 Questionnaire Parameter Name","GAD02-Total Score - Analysis","GAD02-Total Score - Analysis","Generalized Anxiety Disorder - 7 Version 2 - Total score used for analysis.","Generalized Anxiety Disorder - 7 Version 2 - Total Score for Analysis","ADaM CT 2025-09-26"
"C158114",,"No","Geriatric Depression Scale Short Form Questionnaire Parameter Code","GDS02PC","Geriatric Depression Scale Short Form Questionnaire Parameter Code","A parameter code codelist for the Geriatric Depression Scale Short Form questionnaire (GDS02) to support the calculation of total score in ADaM.","CDISC ADaM Geriatric Depression Scale Short Form Questionnaire Parameter Code Terminology","ADaM CT 2025-09-26"
"C158155","C158114",,"Geriatric Depression Scale Short Form Questionnaire Parameter Code","GDS02TS","GDS02-Total Score - Analysis","Geriatric Depression Scale Short Form - Total score used for analysis.","Geriatric Depression Scale Short Form - Total Score for Analysis","ADaM CT 2025-09-26"
"C158115",,"No","Geriatric Depression Scale Short Form Questionnaire Parameter Name","GDS02PN","Geriatric Depression Scale Short Form Questionnaire Parameter Name","A parameter name codelist for the Geriatric Depression Scale Short Form questionnaire (GDS02) to support the calculation of total score in ADaM.","CDISC ADaM Geriatric Depression Scale Short Form Questionnaire Parameter Name Terminology","ADaM CT 2025-09-26"
"C158155","C158115",,"Geriatric Depression Scale Short Form Questionnaire Parameter Name","GDS02-Total Score - Analysis","GDS02-Total Score - Analysis","Geriatric Depression Scale Short Form - Total score used for analysis.","Geriatric Depression Scale Short Form - Total Score for Analysis","ADaM CT 2025-09-26"
"C187456",,"No","Hamilton Depression Rating Scale - 17 Item Clinical Classification Parameter Code","HAMD1PC","Hamilton Depression Rating Scale - 17 Item Clinical Classification Parameter Code","A parameter code codelist for the Hamilton Depression Rating Scale - 17 Item Clinical Classification (HAMD 17) to support the calculation of total score in ADaM.","CDISC ADaM Hamilton Depression Rating Scale - 17 Item Clinical Classification Parameter Code Terminology","ADaM CT 2025-09-26"
"C187466","C187456",,"Hamilton Depression Rating Scale - 17 Item Clinical Classification Parameter Code","HAMD1TS","HAMD1-Total Score - Analysis","Hamilton Depression Rating Scale - 17 Item - Total score used for analysis.","Hamilton Depression Rating Scale - 17 Item - Total Score for Analysis","ADaM CT 2025-09-26"
"C187455",,"No","Hamilton Depression Rating Scale - 17 Item Clinical Classification Parameter Name","HAMD1PN","Hamilton Depression Rating Scale - 17 Item Clinical Classification Parameter Name","A parameter name codelist for the Hamilton Depression Rating Scale - 17 Item Clinical Classification (HAMD 17) to support the calculation of total score in ADaM.","CDISC ADaM Hamilton Depression Rating Scale - 17 Item Clinical Classification Parameter Name Terminology","ADaM CT 2025-09-26"
"C187466","C187455",,"Hamilton Depression Rating Scale - 17 Item Clinical Classification Parameter Name","HAMD1-Total Score - Analysis","HAMD1-Total Score - Analysis","Hamilton Depression Rating Scale - 17 Item - Total score used for analysis.","Hamilton Depression Rating Scale - 17 Item - Total Score for Analysis","ADaM CT 2025-09-26"
"C204410",,"Yes","Input Parameter","INPRM","Input Parameter","A terminology codelist containing the input parameters for an analysis.","CDISC ADaM Input Parameter Terminology","ADaM CT 2025-09-26"
"C53345","C204410",,"Input Parameter","BIRTH RATE",,"The ratio of total births to the total population during a specified time period.","Birth Rate","ADaM CT 2025-09-26"
"C210047","C204410",,"Input Parameter","MORTALITY PROBABILITY",,"Probability of individuals with defined demographic characteristics and tobacco use status that die in a specified time interval. (Vugrin ED, Rostron BL, Verzi SJ, Brodsky NS, Brown TJ, Choiniere CJ, Coleman BN, Paredes A, Apelberg BJ. Modeling the potential effects of new tobacco products and policies: a dynamic population model for multiple product use and harm. PLoS One. 2015 Mar 27;10(3):e0121008.)","Tobacco Use Status Mortality Probability","ADaM CT 2025-09-26"
"C210048","C204410",,"Input Parameter","NET MIGRATION RATE",,"Annual number of net international migrants entering/leaving during the time interval per person in the population. (Vugrin ED, Rostron BL, Verzi SJ, Brodsky NS, Brown TJ, Choiniere CJ, Coleman BN, Paredes A, Apelberg BJ. Modeling the potential effects of new tobacco products and policies: a dynamic population model for multiple product use and harm. PLoS One. 2015 Mar 27;10(3):e0121008.)","Net Migration Rate","ADaM CT 2025-09-26"
"C210049","C204410",,"Input Parameter","POPULATION COUNT",,"An absolute count of the number of individuals within a population group.","Population Count","ADaM CT 2025-09-26"
"C17010","C204410",,"Input Parameter","PREVALENCE",,"The proportion of persons in a population who have a particular disease or attribute at a specified point in time or over a specified period of time. (CDC)","Prevalence","ADaM CT 2025-09-26"
"C210050","C204410",,"Input Parameter","TRANSITION PROBABILITY",,"Probability of individuals with defined demographic characteristics and tobacco use status that transition their tobacco use status in the specified time interval. (Vugrin ED, Rostron BL, Verzi SJ, Brodsky NS, Brown TJ, Choiniere CJ, Coleman BN, Paredes A, Apelberg BJ. Modeling the potential effects of new tobacco products and policies: a dynamic population model for multiple product use and harm. PLoS One. 2015 Mar 27;10(3):e0121008.)","Tobacco Use Transition Probability","ADaM CT 2025-09-26"
"C193278",,"No","National Early Warning Score 2 Clinical Classification Parameter Code","NEWS1PC","National Early Warning Score 2 Clinical Classification Parameter Code","A parameter code codelist for the National Early Warning Score 2 Clinical Classification (NEWS2) to support the calculation of total score in ADaM.","CDISC ADaM National Early Warning Score 2 Clinical Classification Parameter Code Terminology","ADaM CT 2025-09-26"
"C193374","C193278",,"National Early Warning Score 2 Clinical Classification Parameter Code","NEWS1TRG","NEWS1-Trigger - Analysis","National Early Warning Score 2 - Trigger used for analysis.","National Early Warning Score 2 - Trigger for Analysis","ADaM CT 2025-09-26"
"C193373","C193278",,"National Early Warning Score 2 Clinical Classification Parameter Code","NEWS1TS","NEWS1-Total Score - Analysis","National Early Warning Score 2 - Total score used for analysis.","National Early Warning Score 2 - Total Score for Analysis","ADaM CT 2025-09-26"
"C193277",,"No","National Early Warning Score 2 Clinical Classification Parameter Name","NEWS1PN","National Early Warning Score 2 Clinical Classification Parameter Name","A parameter name codelist for the National Early Warning Score 2 Clinical Classification (NEWS2) to support the calculation of total score in ADaM.","CDISC ADaM National Early Warning Score 2 Clinical Classification Parameter Name Terminology","ADaM CT 2025-09-26"
"C193373","C193277",,"National Early Warning Score 2 Clinical Classification Parameter Name","NEWS1-Total Score - Analysis","NEWS1-Total Score - Analysis","National Early Warning Score 2 - Total score used for analysis.","National Early Warning Score 2 - Total Score for Analysis","ADaM CT 2025-09-26"
"C193374","C193277",,"National Early Warning Score 2 Clinical Classification Parameter Name","NEWS1-Trigger - Analysis","NEWS1-Trigger - Analysis","National Early Warning Score 2 - Trigger used for analysis.","National Early Warning Score 2 - Trigger for Analysis","ADaM CT 2025-09-26"
"C81225",,"No","Parameter Type","PARAMTYP","Parameter Type","Parameter Type: Indicates whether the parameter is derived as a function of one or more other parameters.","CDISC ADaM Parameter Type Terminology","ADaM CT 2025-09-26"
"C81197","C81225",,"Parameter Type","DERIVED",,"Derived: Indicates that a parameter is derived as a function of one or more other parameters.","Derived Flag","ADaM CT 2025-09-26"
"C165644",,"Yes","Pool for Integration","POOLINT","Pool for Integration","Terminology relevant to the name of the Pool, often defined in the integrated statistical analysis plan, which identifies the combination of subjects' clinical trial experience and will be the focus of the integrated analysis.","CDISC ADaM Pool for Integration Terminology","ADaM CT 2025-09-26"
"C165858","C165644",,"Pool for Integration","OVERALL",,"The pool that includes data across all studies within which the subject has participated, used for the overall integrated analysis.","Overall Pooled Data","ADaM CT 2025-09-26"
"C124296",,"Yes","Subject Trial Status","SBJTSTAT","Subject Trial Status","Indicates the status of the subject in the trial.","CDISC ADaM Subject Trial Status Terminology","ADaM CT 2025-09-26"
"C25250","C124296",,"Subject Trial Status","COMPLETED",,"To possess every necessary or normal part or component or step; having come or been brought to a conclusion. (NCI)","Complete","ADaM CT 2025-09-26"
"C25484","C124296",,"Subject Trial Status","DISCONTINUED",,"To stop or end, permanently or temporarily.","Discontinue","ADaM CT 2025-09-26"
"C53279","C124296",,"Subject Trial Status","ONGOING","Continuous","Remain in force or carry on without letup; keep or maintain in unaltered condition; exist in time or space without stop or interruption. (NCI)","Continue","ADaM CT 2025-09-26"
"C81226",,"No","Time Imputation Flag","TIMEFL","Time Imputation Flag","Time Imputation Flag: Indicates the level of imputation reflected in a time value.","CDISC ADaM Time Imputation Flag Terminology","ADaM CT 2025-09-26"
"C81213","C81226",,"Time Imputation Flag","H",,"Hours Imputed: Entire time (hours, minutes and seconds) is imputed.","Hours Minutes Seconds Imputed","ADaM CT 2025-09-26"
"C81214","C81226",,"Time Imputation Flag","M",,"Minutes Imputed: Minutes and seconds are imputed.","Minutes Seconds Imputed","ADaM CT 2025-09-26"
"C81215","C81226",,"Time Imputation Flag","S",,"Seconds Imputed: Seconds are imputed.","Seconds Imputed","ADaM CT 2025-09-26"
"C204414",,"Yes","Tobacco Product Category Response","TPCATRS","Tobacco Product Category Response","A terminology codelist containing the responses for a tobacco product category.","CDISC ADaM Tobacco Product Category Response Terminology","ADaM CT 2025-09-26"
"C1802","C204414",,"Tobacco Product Category Response","CIGARETTES",,"A tobacco product that meets the definition of the term ""cigarette"" in section 3(1) of the Federal Cigarette Labeling and Advertising Act (any roll of tobacco wrapped in paper or in any substance not containing tobacco), and includes tobacco, in any form, that is functional in the product, which, because of its appearance, the type of tobacco used in the filler, or its packaging and labeling, is likely to be offered to, or purchased by, consumers as a cigarette or as roll-your-own tobacco (FD&C Act Section 900(3); 15 U.S.C. Ch. 36: CIGARETTE LABELING AND ADVERTISING). Note: The US FDA uses the term ""cigarettes"" to refer to combusted cigarettes, unless specifically stated otherwise. In general, the term is not meant to include any noncombusted tobacco products that meet the definition of cigarette in Section 900(3) of the Federal Food, Drug, and Cosmetic Act (21 U.S.C. Section 387(3)).","Cigarette","ADaM CT 2025-09-26"
"C1813","C204414",,"Tobacco Product Category Response","CIGARS",,"A tobacco product that (1) is not a cigarette and (2) is a roll of tobacco wrapped in leaf tobacco or any substance containing tobacco. (FDA CTP Glossary; 26 U.S.C. Section 5702(a))","Cigar","ADaM CT 2025-09-26"
"C128795","C204414",,"Tobacco Product Category Response","ELECTRONIC NICOTINE DELIVERY SYSTEMS (ENDS)",,"A tobacco product that is a device used to deliver e-liquid in aerosol form for inhalation. (FDA CTP Glossary)","Electronic Nicotine Delivery Device","ADaM CT 2025-09-26"
"C175552","C204414",,"Tobacco Product Category Response","HEATED TOBACCO PRODUCTS","Heat Not Burn; HTP; Tobacco Heating System","Any tobacco product or associated parts and components that, because of its appearance, type, packaging, labeling, or associated parts and components, heats tobacco filler and can be used with e-liquids and/or other consumables. This includes products that meet the definition of a cigarette and are not burned like a cigarette.","Heated Tobacco Product","ADaM CT 2025-09-26"
"C214744","C204414",,"Tobacco Product Category Response","PIPE TOBACCO PRODUCTS",,"Any tobacco product or associated parts and components that, because of its appearance, type, packaging, labeling, or associated parts and components, is intended for use in a smoking pipe with a bowl and a stem.","Pipe Tobacco Product","ADaM CT 2025-09-26"
"C214742","C204414",,"Tobacco Product Category Response","ROLL-YOUR-OWN TOBACCO PRODUCTS","RYO Product","Any tobacco product or associated parts and components that, because of its appearance, type, packaging, labeling or associated parts and components, is suitable for use by consumers for making cigarettes.","Roll-your-own Tobacco Product","ADaM CT 2025-09-26"
"C214743","C204414",,"Tobacco Product Category Response","SMOKELESS TOBACCO PRODUCTS",,"Any tobacco product that is intended to be placed in the oral or nasal cavity. It may consist of cut, ground, powdered, or leaf tobacco.","Smokeless Tobacco Product","ADaM CT 2025-09-26"
"C214745","C204414",,"Tobacco Product Category Response","WATERPIPE TOBACCO PRODUCTS","Hookah Tobacco Product; Shisha Tobacco Product","Any tobacco product or associated parts and components that, because of its appearance, type, packaging, labeling, or associated parts and components, burns tobacco filler in a bowl and generates smoke that passes through a liquid into a hose and/or mouthpiece.","Waterpipe Tobacco Product","ADaM CT 2025-09-26"
"C204413",,"Yes","Tobacco Product Use Status Response","TPUSRS","Tobacco Product Use Status Response","A terminology codelist containing the responses for tobacco product use status.","CDISC ADaM Tobacco Product Use Status Response Terminology","ADaM CT 2025-09-26"
"C25471","C204413",,"Tobacco Product Use Status Response","CURRENT",,"Occurring in or belonging to the present time. (NCI)","Current","ADaM CT 2025-09-26"
"C25627","C204413",,"Tobacco Product Use Status Response","FORMER","Previous","Occurring prior to something else. (NCI)","Previous","ADaM CT 2025-09-26"
"C70543","C204413",,"Tobacco Product Use Status Response","NEVER",,"Not ever; at no time in the past.","Never","ADaM CT 2025-09-26"
"C204412",,"Yes","Tobacco Use Transition Response","TBUTRS","Tobacco Use Transition Response","A terminology codelist containing the responses for tobacco use transition.","CDISC ADaM Tobacco Use Transition Response Terminology","ADaM CT 2025-09-26"
"C96001","C204412",,"Tobacco Use Transition Response","CESSATION",,"The act of ceasing use of a tobacco product temporarily or permanently (moving from 'Current to 'Former' tobacco product use state).","Tobacco Product Use Cessation","ADaM CT 2025-09-26"
"C210056","C204412",,"Tobacco Use Transition Response","INITIATION",,"The act of starting use (i.e., meeting the criteria of usage) of a tobacco product that has never been used before (moving from 'Never' to 'Current' tobacco product use state).","Tobacco Product Use Initiation","ADaM CT 2025-09-26"
"C210057","C204412",,"Tobacco Use Transition Response","RELAPSE",,"The act of re-starting use of a tobacco product after a period of product use cessation (moving from 'Former' to 'Current' tobacco product use state).","Tobacco Product Use Relapse","ADaM CT 2025-09-26"
"C210058","C204412",,"Tobacco Use Transition Response","SWITCHING",,"The act of replacing one tobacco product with another.","Tobacco Product Use Switching","ADaM CT 2025-09-26"
