"Code","Codelist Code","Codelist Extensible (Yes/No)","Codelist Name","CDISC Submission Value","CDISC Synonym(s)","CDISC Definition","NCI Preferred Term","Standard and Date"
"C158118",,"Yes","Age Estimation Method Response","AGESMETH","Age Estimation Method Response","Terminology related to the method by which the age of an individual is determined through estimation.","CDISC SEND Age Estimation Method Response Terminology","SEND CT 2025-09-26"
"C158324","C158118",,"Age Estimation Method Response","ANIMAL RECORDS",,"Information obtained from medical records, acquisition records, or other official documentation associated with the animal.","Animal Record Information","SEND CT 2025-09-26"
"C158323","C158118",,"Age Estimation Method Response","DENTAL EXAM",,"A systematic evaluation of the mouth, face, and neck, which may include tooth counting, cleaning and visual assessment.","Dental Examination","SEND CT 2025-09-26"
"C20989","C158118",,"Age Estimation Method Response","PHYSICAL EXAMINATION","Physical Exam","A systemic evaluation of the body and its functions using visual inspection, palpation, percussion and auscultation.","Physical Examination","SEND CT 2025-09-26"
"C128940","C158118",,"Age Estimation Method Response","RADIOGRAPHY","Radiographic Exam","A radiographic procedure using the emission of penetrating energy waves to form an image of the structure.","Radiographic Examination","SEND CT 2025-09-26"
"C17998","C158118",,"Age Estimation Method Response","UNKNOWN","U; UNK; Unknown","Not known, not observed, not recorded, or refused. (NCI)","Unknown","SEND CT 2025-09-26"
"C66781",,"No","Age Unit","AGEU","Age Unit","Those units of time that are routinely used to express the age of a subject.","CDISC SDTM Age Unit Terminology","SEND CT 2025-09-26"
"C25301","C66781",,"Age Unit","DAYS",,"A unit of measurement of time equal to 24 hours.","Day","SEND CT 2025-09-26"
"C25529","C66781",,"Age Unit","HOURS","h; Hours; hr","A unit of measurement of time equal to 60 minutes.","Hour","SEND CT 2025-09-26"
"C29846","C66781",,"Age Unit","MONTHS","Month","One of the 12 divisions of a year as determined by a calendar. It corresponds to the unit of time of approximately to one cycle of the moon's phases, about 30 days or 4 weeks. (NCI)","Month","SEND CT 2025-09-26"
"C29844","C66781",,"Age Unit","WEEKS","Week","Any period of seven consecutive days. (NCI)","Week","SEND CT 2025-09-26"
"C29848","C66781",,"Age Unit","YEARS","Year","The period of time that it takes for Earth to make a complete revolution around the sun, approximately 365 days; a specific one year period. (NCI)","Year","SEND CT 2025-09-26"
"C74456",,"Yes","Anatomical Location","LOC","Anatomical Location","Terminology codelist used for anatomical location within CDISC.","CDISC SDTM Anatomical Location Terminology","SEND CT 2025-09-26"
"C116163","C74456",,"Anatomical Location","5TH LUMBAR SPINOUS PROCESS",,"The spinous process of the 5th lumbar vertebra.","Fifth Lumbar Spinous Process","SEND CT 2025-09-26"
"C32038","C74456",,"Anatomical Location","ABDOMINAL AORTA",,"The portion of the descending aorta that lies within the abdomen, beginning below the diaphragm and ending at its division into the right and left common iliac arteries. (NCI)","Abdominal Aorta","SEND CT 2025-09-26"
"C12664","C74456",,"Anatomical Location","ABDOMINAL CAVITY","Abdomen","The body cavity between the thoracic and pelvic cavities in mammals.","Abdomen","SEND CT 2025-09-26"
"C12360","C74456",,"Anatomical Location","ABDOMINAL LYMPH NODE",,"Any lymph node within the abdomen.","Abdominal Lymph Node","SEND CT 2025-09-26"
"C151399","C74456",,"Anatomical Location","ABDOMINAL QUADRANT, LEFT LOWER",,"The left lower quadrant of the abdomen.","Left Lower Quadrant of Abdomen","SEND CT 2025-09-26"
"C151397","C74456",,"Anatomical Location","ABDOMINAL QUADRANT, LEFT UPPER",,"The left upper quadrant of the abdomen.","Left Upper Quadrant of Abdomen","SEND CT 2025-09-26"
"C151400","C74456",,"Anatomical Location","ABDOMINAL QUADRANT, RIGHT LOWER",,"The right lower quadrant of the abdomen.","Right Lower Quadrant of Abdomen","SEND CT 2025-09-26"
"C151398","C74456",,"Anatomical Location","ABDOMINAL QUADRANT, RIGHT UPPER",,"The right upper quadrant of the abdomen.","Right Upper Quadrant of Abdomen","SEND CT 2025-09-26"
"C139186","C74456",,"Anatomical Location","ABDOMINAL REGION",,"Any portion of the body that lies within the boundary, either internally or externally, of the abdomen: superior margin, the thorax; inferior margin, the pelvis; lateral margins, the ribs.","Abdominal Region","SEND CT 2025-09-26"
"C52758","C74456",,"Anatomical Location","ABDOMINAL SKIN","Abdominal Skin","The integument that covers the abdomen.","Abdominal Skin","SEND CT 2025-09-26"
"C77608","C74456",,"Anatomical Location","ABDOMINAL WALL",,"The tissue that surrounds the organs present in the abdominal cavity.","Abdominal Wall","SEND CT 2025-09-26"
"C12665","C74456",,"Anatomical Location","ABDUCENS NERVE",,"The sixth cranial nerve.","Abducens Nerve","SEND CT 2025-09-26"
"C165996","C74456",,"Anatomical Location","ABDUCTOR DIGITI MINIMI MUSCLE OF THE HAND",,"A muscle of the hand, in general extending from the pisiform bone, the pisohamate ligament, and the flexor retinaculum to the ulnopalmar margin of the proximal phalanx. Primary function is abduction of the little finger and flexion of the phalanx nearest the hand.","Abductor Digiti Minimi Muscle of the Hand","SEND CT 2025-09-26"
"C163504","C74456",,"Anatomical Location","ABDUCTOR DIGITI QUINTI MUSCLE","Abductor Digiti Minimi; Abductor Minimi Digiti","A muscle in the foot, in general extending from the medial and lateral processes of the posterior calcaneal tuberosity to the lateral side of the base of the proximal phalanx of the fifth toe and the fifth metatarsal; primary function is to abduct the fifth toe at the metatarsophalangeal joint and support the lateral arch.","Abductor Digiti Minimi Muscle","SEND CT 2025-09-26"
"C163505","C74456",,"Anatomical Location","ABDUCTOR HALLUCIS MUSCLE",,"A muscle in the foot, in general extending from the medial process of the posterior calcaneal tuberosity to the medial side of the base of the proximal phalanx of the big toe; primary function is to abduct and flex the big toe at the metatarsophalangeal joint.","Abductor Hallucis Muscle","SEND CT 2025-09-26"
"C165997","C74456",,"Anatomical Location","ABDUCTOR POLLICIS BREVIS MUSCLE",,"A muscle of the hand, in general extending from the flexor retinaculum and the tubercles of the scaphoid and trapezium bones to the outer side of the base of the proximal phalanx of the thumb. Primary function is abduction of the thumb away from the palm.","Abductor Pollicis Brevis Muscle","SEND CT 2025-09-26"
"C52888","C74456",,"Anatomical Location","ABDUCTOR POLLICIS LONGUS MUSCLE",,"A skeletal muscle of the forearm originating from the posterior surfaces of the ulna and radius and the interosseous membrane. (NCI)","Abductor Pollicis Longus","SEND CT 2025-09-26"
"C116183","C74456",,"Anatomical Location","ACCESSORY RENAL ARTERY",,"An additional renal vessel originating from the aorta and entering the kidney at the proximal or distal end of the organ. Accessory renal arteries are found in 26-30% of humans.","Accessory Renal Artery","SEND CT 2025-09-26"
"C32042","C74456",,"Anatomical Location","ACETABULUM","Acetabulum","Two cup shaped areas, one each on the lateral side of the lower pelvis that house the head of the femur to form the ball and socket joint of the hip. (NCI)","Acetabulum","SEND CT 2025-09-26"
"C32043","C74456",,"Anatomical Location","ACHILLES TENDON",,"The tendon that, in general, attaches the gastrocnemius muscle to the calcaneous bone in the tarsus.","Achilles Tendon","SEND CT 2025-09-26"
"C32047","C74456",,"Anatomical Location","ACROMIOCLAVICULAR JOINT","Acromioclavicular Joint","The junction of the upper distal end of the scapula to the distal edge of the collarbone, also known as the acromion and the clavicle. (NCI)","Acromioclavicular Joint","SEND CT 2025-09-26"
"C32048","C74456",,"Anatomical Location","ACROMION","Acromion","The upper distal process of the scapula. (NCI)","Acromion","SEND CT 2025-09-26"
"C102285","C74456",,"Anatomical Location","ACUTE MARGINAL ARTERY","ACUTE MARGINAL ARTERY SEGMENT(S); AMARG","The arteries that arise at the junction of the proximal and mid-right coronary artery conduit segments.","Acute Marginal Artery","SEND CT 2025-09-26"
"C163506","C74456",,"Anatomical Location","ADDUCTOR BREVIS MUSCLE",,"A muscle in the leg, in general extending from the external surface of the body of pubis and the anterior surface of the inferior pubic ramus to the pectineal line and the medial lip of the linea aspera; primary function is to adduct, flex, and rotate the thigh.","Adductor Brevis Muscle","SEND CT 2025-09-26"
"C163507","C74456",,"Anatomical Location","ADDUCTOR HALLUCIS MUSCLE, OBLIQUE HEAD",,"The larger of two heads of the adductor hallucis muscle, in general originating from the sheath of the peroneus longus tendon and the plantar surface of the bases of the second to fourth metatarsal bones in the foot.","Oblique Head of Adductor Hallucis Muscle","SEND CT 2025-09-26"
"C163508","C74456",,"Anatomical Location","ADDUCTOR HALLUCIS MUSCLE, TRANSVERSE HEAD",,"The smaller of two heads of the adductor hallucis muscle, in general originating from the deep transverse metatarsal ligament and the plantar surface of the metatarsophalangeal joints of the lateral three toes.","Transverse Head of Adductor Hallucis Muscle","SEND CT 2025-09-26"
"C163509","C74456",,"Anatomical Location","ADDUCTOR LONGUS MUSCLE",,"A muscle in the thigh, in general extending from the external surface of the body of pubis to the middle third of the linea aspera; primary function is to adduct and medially rotate the thigh.","Adductor Longus Muscle","SEND CT 2025-09-26"
"C163510","C74456",,"Anatomical Location","ADDUCTOR MAGNUS MUSCLE",,"A muscle in the thigh, in general extending from the ischiopubic ramus and ischial tuberosity to the gluteal tuberosity of the femur, medial lip of the linea aspera, medial supracondylar ridge, and adductor tubercle; primary function is to adduct, flex, extend, and medially rotate the thigh at the hip joint.","Adductor Magnus Muscle","SEND CT 2025-09-26"
"C186100","C74456",,"Anatomical Location","ADDUCTOR POLLICIS MUSCLE",,"A muscle of the hand that extends from the capitate and bases of the second and third metacarpals for the oblique head, and the anterior surface of body of the third metacarpal for the transverse head, to the base of proximal phalanx and extensor hood of the thumb; primary function is to draw the first metacarpal laterally to oppose the thumb toward the center of palm and rotate it medially.","Adductor Pollicis Muscle","SEND CT 2025-09-26"
"C12666","C74456",,"Anatomical Location","ADRENAL GLAND",,"The endocrine glands adjacent to the kidneys that consist of the outer adrenal cortex and the inner adrenal medulla in mammals.","Adrenal Gland","SEND CT 2025-09-26"
"C129430","C74456",,"Anatomical Location","ALISPHENOID PROCESS","Greater Wing of the Sphenoid Bone","The bony process of the sphenoid bone, extending from the side of the body of the sphenoid and curving upward, laterally, and backward.","Sphenoid Wing","SEND CT 2025-09-26"
"C89749","C74456",,"Anatomical Location","ALVEOLAR PROCESS","Alveolar Margin; Alveolar Ridge","The thickened bony structures in the mandible and maxilla that contain the sockets of the teeth.","Alveolar Ridge","SEND CT 2025-09-26"
"C12986","C74456",,"Anatomical Location","ALVEOLUS","Alveoli","Any of the terminal sacs in the lungs through which gas exchange takes place with the pulmonary capillary blood.","Alveolus","SEND CT 2025-09-26"
"C13188","C74456",,"Anatomical Location","AMNIOTIC FLUID","Aqua Amnii","The fluid within the amniotic cavity which surrounds and protects the developing embryo. (NCI)","Amniotic Fluid","SEND CT 2025-09-26"
"C13011","C74456",,"Anatomical Location","AMPULLA OF VATER",,"The junction of the common bile and main pancreatic ducts, which protrudes into the medial aspect of the descending duodenum at the major duodenal papilla.","Ampulla of Vater","SEND CT 2025-09-26"
"C12440","C74456",,"Anatomical Location","AMYGDALA","Amygdala; Amygdaloid Body; Amygdaloid Nucleus","A group of nuclei adjacent to the lateral ventricle of the brain within the temporal lobe, and is part of the limbic system.","Amygdala","SEND CT 2025-09-26"
"C12375","C74456",,"Anatomical Location","ANAL CANAL",,"The terminal section of the alimentary canal, which extends from the anorectal junction and ends at the anal opening. (NCI)","Anal Canal","SEND CT 2025-09-26"
"C32069","C74456",,"Anatomical Location","ANAL REGION",,"The area that includes the anus and the perianal skin.","Anal Region","SEND CT 2025-09-26"
"C165177","C74456",,"Anatomical Location","ANAL SPHINCTER",,"The internal and external muscles surrounding the anus that maintain continence.","Anal Sphincter","SEND CT 2025-09-26"
"C25419","C74456",,"Anatomical Location","ANAL VERGE",,"The transitional zone between the moist, hairless, modified skin of the anal canal and the perianal skin.","Anal Margin","SEND CT 2025-09-26"
"C15609","C74456",,"Anatomical Location","ANASTOMOSIS","Anastomosis","A natural or surgically-induced connection between tubular structures in the body. (NCI)","Anastomosis","SEND CT 2025-09-26"
"C186101","C74456",,"Anatomical Location","ANCONEUS MUSCLE",,"A muscle of the elbow, in general extending from the lateral epicondyle of the humerus to the lateral surface of the ulnar olecranon; primary function is to extend the forearm and stabilize the elbow joint.","Anconeus Muscle","SEND CT 2025-09-26"
"C32077","C74456",,"Anatomical Location","ANGULAR GYRUS",,"A ridge on the posterior part of the inferior parietal lobule.","Angular Gyrus","SEND CT 2025-09-26"
"C204661","C74456",,"Anatomical Location","ANKLE DORSIFLEXOR MUSCLES",,"A group of muscles in the ankle, the tibialis anterior and extensor hallucis longus muscles; primary function is to dorsiflex the ankle.","Ankle Dorsiflexor Muscles","SEND CT 2025-09-26"
"C161390","C74456",,"Anatomical Location","ANKLE JOINT ANTERIOR EXTENSOR TENDONS",,"The tendons in the anterior compartment of the leg that cross the tibiotalar joint anteriorly and connect muscles that originate on the surfaces of the tibia and fibula to bones in the toes, enabling dorsiflexion of the foot at the ankle and extension of the toes. (NCI)","Ankle Joint Anterior Extensor Tendons","SEND CT 2025-09-26"
"C161389","C74456",,"Anatomical Location","ANKLE JOINT ANTERIOR FLEXOR TENDONS",,"The tendons in the anterior compartment of the leg that connect muscles that originate on the surfaces of the femur, tibia, and fibula to bones in the toes, enabling plantar flexion of the foot at the ankle. (NCI)","Ankle Joint Anterior Flexor Tendons","SEND CT 2025-09-26"
"C32078","C74456",,"Anatomical Location","ANKLE JOINT","Ankle; Ankle Joint","A gliding joint between the distal ends of the tibia and fibula and the proximal end of the talus. (NCI)","Ankle Joint","SEND CT 2025-09-26"
"C117868","C74456",,"Anatomical Location","ANKLE MORTISE","Talar Mortise","A rectangular socket or bony arch that connects the ends of the tibia and fibula to the talus.","Ankle Mortise","SEND CT 2025-09-26"
"C186102","C74456",,"Anatomical Location","ANORECTUM",,"The distal portion of the gastrointestinal tract that includes the anal canal and rectum.","Anorectal Area","SEND CT 2025-09-26"
"C103238","C74456",,"Anatomical Location","ANTECUBITAL FOSSA","Antecubital Region","A triangular space on the anterior side of the elbow joint. Three main veins of the arm, the brachial artery, the medial nerve and the tendon of the biceps muscle pass through this space.","Antecubital Fossa","SEND CT 2025-09-26"
"C12829","C74456",,"Anatomical Location","ANTERIOR CEREBRAL ARTERY","ACA","The smaller paired arteries (left and right) that arise from the internal carotid artery and form a portion of the Circle of Willis.","Anterior Cerebral Artery","SEND CT 2025-09-26"
"C139185","C74456",,"Anatomical Location","ANTERIOR CINGULATE CORTEX",,"The part of the cingulate cortex that lies most frontal, with the most anterior portion of the cortex bending in a horseshoe shape around the genu of the corpus callosum.","Anterior Cingulate Cortex","SEND CT 2025-09-26"
"C187996","C74456",,"Anatomical Location","ANTERIOR CINGULATE GYRUS",,"The part of the cingulate gyrus that lies inferior to the superior frontal gyrus, and is separated from it by the cingulate sulcus; it ends inferior to the rostrum of the corpus callosum.","Anterior Cingulate Gyrus","SEND CT 2025-09-26"
"C32637","C74456",,"Anatomical Location","ANTERIOR HORN OF THE LATERAL VENTRICLE","Frontal Horn of the Lateral Ventricle","The part of the lateral ventricle located in the frontal lobe, anterior to the interventricular foramen of Monroe, and bounded by the septum pellucidum, fornix, and genu of the corpus callosum.","Frontal Horn of the Lateral Ventricle","SEND CT 2025-09-26"
"C32091","C74456",,"Anatomical Location","ANTERIOR INFERIOR CEREBELLAR ARTERY","AICA","A basilar artery branch that supplies the anterior portion of the inferior surface of the cerebellum.","Anterior Inferior Cerebellar Artery","SEND CT 2025-09-26"
"C32097","C74456",,"Anatomical Location","ANTERIOR MEDIASTINAL LYMPH NODE","Prevascular Lymph Node","A lymph node located in the anterior part of the mediastinum.","Anterior Mediastinal Lymph Node","SEND CT 2025-09-26"
"C139187","C74456",,"Anatomical Location","ANTERIOR SUPERIOR ILIAC SPINE",,"A bony projection from the anterior region of the iliac crest, and is the site of attachment for the sartorius and tensor fascia latae muscles and the inguinal ligament.","Anterior Superior Iliac Spine","SEND CT 2025-09-26"
"C12825","C74456",,"Anatomical Location","ANTERIOR TIBIAL ARTERY",,"An artery of the lower extremity that supplies blood to the anterior part of the leg and the foot.","Anterior Tibial Artery","SEND CT 2025-09-26"
"C32115","C74456",,"Anatomical Location","ANTERIOR TIBIAL VEIN",,"The vein that runs parallel to the anterior tibial artery and empties into the popliteal vein.","Anterior Tibial Vein","SEND CT 2025-09-26"
"C12259","C74456",,"Anatomical Location","ANTRUM PYLORI","Antrum Pylori","The initial part of the pyloric canal of the stomach. This site contains endocrine cells that produce gastrin and somatostatin. (NCI)","Antrum Pylori","SEND CT 2025-09-26"
"C43362","C74456",,"Anatomical Location","ANUS",,"The distal orifice of the digestive tract located between the rectum and the external surface of the body, comprising glandular, transitional, and squamous epithelium.","Anus","SEND CT 2025-09-26"
"C12669","C74456",,"Anatomical Location","AORTA",,"The major artery of the body; it arises from the left ventricle of the heart and terminally bifurcates into the common iliac arteries.","Aorta","SEND CT 2025-09-26"
"C32123","C74456",,"Anatomical Location","AORTIC ARCH","Aortic Arch","The curved segment of the aorta between the ascending and the descending segments.","Aortic Arch","SEND CT 2025-09-26"
"C97112","C74456",,"Anatomical Location","AORTIC BODY",,"A small mass that is located on the inferior surface of the aortic arch. It functions as a peripheral chemoreceptor and is composed of glomus cells.","Aortic Body","SEND CT 2025-09-26"
"C130167","C74456",,"Anatomical Location","AORTIC VALVE ANNULUS",,"A fibrous membrane that attaches to, and provides support for, the aortic valve leaflets.","Aortic Valve Annulus","SEND CT 2025-09-26"
"C12670","C74456",,"Anatomical Location","AORTIC VALVE",,"A cardiac valve located between the left ventricle and the aorta.","Aortic Valve","SEND CT 2025-09-26"
"C127638","C74456",,"Anatomical Location","AORTIC VALVE, LEFT CORONARY CUSP","Aortic Valve, Left Semilunar Cusp","The cusp of the aortic valve that overlies the left coronary ostium.","Left Coronary Cusp of the Aortic Valve","SEND CT 2025-09-26"
"C127639","C74456",,"Anatomical Location","AORTIC VALVE, NON-CORONARY CUSP","Aortic Valve, Posterior Semilunar Cusp","The cusp of the aortic valve that is positioned posteriorly relative to the left and right aortic cusps.","Non-Coronary Cusp of the Aortic Valve","SEND CT 2025-09-26"
"C127640","C74456",,"Anatomical Location","AORTIC VALVE, RIGHT CORONARY CUSP","Aortic Valve, Right Semilunar Cusp","The cusp of the aortic valve that overlies the right coronary ostium.","Right Coronary Cusp of the Aortic Valve","SEND CT 2025-09-26"
"C186103","C74456",,"Anatomical Location","AORTICOPULMONARY SEPTUM",,"The wall that separates the aorta and pulmonary arteries during embryonic development.","Aorticopulmonary Septum","SEND CT 2025-09-26"
"C116166","C74456",,"Anatomical Location","AORTO-ILIAC PERIPHERAL ARTERY",,"The segment of the blood vessels that includes the iliac artery and its origin from the aorta.","Aortoiliac Artery Segment","SEND CT 2025-09-26"
"C118775","C74456",,"Anatomical Location","AORTOCAVAL LYMPH NODE",,"A lymph node located in the area between the abdominal aorta and inferior vena cava. (NCI)","Aortocaval Lymph Node","SEND CT 2025-09-26"
"C116165","C74456",,"Anatomical Location","AORTOPULMONARY WINDOW LYMPH NODE",,"A lymph node located in the aortopulmonary window.","Aortopulmonary Window Lymph Node","SEND CT 2025-09-26"
"C83470","C74456",,"Anatomical Location","APPENDICEAL TIP",,"The distal end of the appendix. (NCI)","Appendiceal Tip","SEND CT 2025-09-26"
"C49477","C74456",,"Anatomical Location","APPENDICULAR SKELETON",,"The part of the skeleton that includes the bones of the upper and lower limbs, including the shoulder and pelvic girdles","Appendicular Skeleton","SEND CT 2025-09-26"
"C12380","C74456",,"Anatomical Location","APPENDIX",,"A pouch-like tissue attached to the cecum, which may exist as a diverticulum.","Appendix","SEND CT 2025-09-26"
"C13190","C74456",,"Anatomical Location","AQUEOUS HUMOR","Aqueous Humour","The watery fluid which is present in the anterior and posterior chambers of the eye. (NCI)","Aqueous Humor","SEND CT 2025-09-26"
"C52754","C74456",,"Anatomical Location","ARM SKIN","Arm Skin","The integument that covers the arm.","Arm Skin","SEND CT 2025-09-26"
"C32141","C74456",,"Anatomical Location","ARM","Arm; Brachium; Upper Arm","The portion of the upper extremity between the shoulder and the elbow.","Arm","SEND CT 2025-09-26"
"C12372","C74456",,"Anatomical Location","ARTERY","Artery","A blood vessel that carries blood away from the heart. (NCI)","Artery","SEND CT 2025-09-26"
"C32150","C74456",,"Anatomical Location","ASCENDING AORTA",,"The portion of the aorta that emerges from the left ventricle and precedes the aortic arch.","Ascending Aorta","SEND CT 2025-09-26"
"C127641","C74456",,"Anatomical Location","ASCENDING AORTA, AORTIC ROOT",,"The portion of the ascending aorta between the aortic annulus and the sinotubular junction.","Aortic Root","SEND CT 2025-09-26"
"C127642","C74456",,"Anatomical Location","ASCENDING AORTA, SINOTUBULAR JUNCTION",,"The terminus of the aortic root; the point at which the aorta attains a tubular configuration.","Sinotubular Junction","SEND CT 2025-09-26"
"C33557","C74456",,"Anatomical Location","ASCENDING AORTA, SINUS OF VALSALVA",,"Any one of the naturally occurring sinuses of the aortic root distal to the semilunar valve.","Sinus of Valsalva","SEND CT 2025-09-26"
"C186104","C74456",,"Anatomical Location","ATRIOVENTRICULAR SEPTUM",,"The confluence of the atrial septum and the ventricular septum.","Atrioventricular Septum","SEND CT 2025-09-26"
"C176322","C74456",,"Anatomical Location","ATRIOVENTRICULAR VALVE",,"Either of the two valves in the heart situated between the atria and ventricles, i.e., the mitral valve or the tricuspid valve.","Atrioventricular Valve","SEND CT 2025-09-26"
"C32164","C74456",,"Anatomical Location","AUDITORY OSSICLE","Ossicles of the Ear","Any of the small bones in the middle ear that transmit acoustic vibrations from the eardrum to the inner ear.","Auditory Ossicle","SEND CT 2025-09-26"
"C32172","C74456",,"Anatomical Location","AXIAL SKELETON",,"The part of the skeleton that includes the skull and spinal column and sternum and ribs. (NCI)","Axial Skeleton","SEND CT 2025-09-26"
"C12674","C74456",,"Anatomical Location","AXILLA","Armpit; Axilla","The underside concavity where the arm and the shoulder are joined. (NCI)","Axilla","SEND CT 2025-09-26"
"C32169","C74456",,"Anatomical Location","AXILLARY ARTERY",,"An artery that originates from the subclavian artery at the lateral margin of the first rib. It supplies the brachial artery.","Axillary Artery","SEND CT 2025-09-26"
"C123461","C74456",,"Anatomical Location","AXILLARY LYMPH NODE LEVEL I",,"Axillary lymph nodes located inferolateral to pectoralis minor.","Axillary Lymph Node Level I","SEND CT 2025-09-26"
"C123462","C74456",,"Anatomical Location","AXILLARY LYMPH NODE LEVEL II",,"Axillary lymph nodes located posterior to pectoralis minor.","Axillary Lymph Node Level II","SEND CT 2025-09-26"
"C123463","C74456",,"Anatomical Location","AXILLARY LYMPH NODE LEVEL III",,"Axillary lymph nodes located superomedial to pectoralis minor.","Axillary Lymph Node Level III","SEND CT 2025-09-26"
"C12904","C74456",,"Anatomical Location","AXILLARY LYMPH NODE",,"Lymph node(s) in the axillary region.","Axillary Lymph Node","SEND CT 2025-09-26"
"C32171","C74456",,"Anatomical Location","AXILLARY VEIN",,"A large blood vessel which returns blood to the heart from the lateral thorax, axilla and upper limb. Each side of the body contains one axillary vein.","Axillary Vein","SEND CT 2025-09-26"
"C53029","C74456",,"Anatomical Location","AZYGOS VEIN",,"A blood vessel which returns blood to the heart from the posterior walls of the thorax and abdomen.","Azygos Vein","SEND CT 2025-09-26"
"C13062","C74456",,"Anatomical Location","BACK","Back","The dorsal area between the base of the neck and the sacrum. (NCI)","Back","SEND CT 2025-09-26"
"C12447","C74456",,"Anatomical Location","BASAL GANGLIA",,"Clusters of neurons comprising the globus pallidus, putamen, caudate, nucleus accumbens, substantia nigra and subthalamic nucleus.","Basal Ganglia","SEND CT 2025-09-26"
"C12228","C74456",,"Anatomical Location","BASE OF THE TONGUE",,"The posterior one third of the tongue behind the terminal sulcus that forms the anterior aspect of the oro-pharynx.","Base of Tongue","SEND CT 2025-09-26"
"C12676","C74456",,"Anatomical Location","BASILAR ARTERY",,"An artery of the brain; in general it arises from the union of the two vertebral arteries at the posterior border of the pons and branches at the anterior border to form the two superior and two posterior cerebral arteries.","Basilar Artery","SEND CT 2025-09-26"
"C32197","C74456",,"Anatomical Location","BASILIC VEIN","Basilic Vein","One of the moderately large superficial veins of the forearm that transports blood from the hand and the medial aspect of the forearm to the axillary vein. (NCI)","Basilic Vein","SEND CT 2025-09-26"
"C186105","C74456",,"Anatomical Location","BASIOCCIPITAL BONE",,"The basilar portion of the occipital bone; it is present during fetal development and later fuses with the occipital bone.","Basioccipital Bone","SEND CT 2025-09-26"
"C186106","C74456",,"Anatomical Location","BASISPHENOID BONE",,"One of the bones of the orbit, situated rostrally to the basilar part of the occipital bone; it is present during fetal development and later fuses to form the posterior portion of the sphenoid bone.","Basisphenoid Bone","SEND CT 2025-09-26"
"C32200","C74456",,"Anatomical Location","BICEPS BRACHII MUSCLE",,"A muscle of the proximal arm/forelimb, in general extending from the scapula to the radius and adjacent fascia; primary function is flexion of the elbow joint and, in some species, also functions in supination of the antebrachium.","Biceps Brachii","SEND CT 2025-09-26"
"C214698","C74456",,"Anatomical Location","BICEPS BRACHII TENDONS",,"The tendons that attach the biceps brachii muscle superiorly to the caricoid process and glenoid fossa of the scapula, and inferiorly to the radius bones.","Biceps Brachii Tendon","SEND CT 2025-09-26"
"C53147","C74456",,"Anatomical Location","BICEPS FEMORIS MUSCLE",,"A muscle in the thigh, in general extending from the ischial tuberosity and posterior femur to the fibula; primary function is to extend the femorotibial joint.","Biceps Femoris","SEND CT 2025-09-26"
"C221582","C74456",,"Anatomical Location","BICEPS FEMORIS MUSCLE, LONG HEAD",,"The long head of the biceps femoris muscle that is located medially and crosses both the hip and knee joints.","Long Head of Biceps Femoris Muscle","SEND CT 2025-09-26"
"C221583","C74456",,"Anatomical Location","BICEPS FEMORIS MUSCLE, SHORT HEAD",,"The short head of the biceps femoris muscle that is located laterally and crosses only the knee joint.","Short Head of Biceps Femoris Muscle","SEND CT 2025-09-26"
"C12376","C74456",,"Anatomical Location","BILE DUCT",,"Any of the ducts conveying bile between the liver and the intestine, including hepatic, cystic, and common bile duct.","Bile Duct","SEND CT 2025-09-26"
"C12678","C74456",,"Anatomical Location","BILIARY TRACT","Biliary Tract","The duct system that transports bile from its origination by hepatocytes in the liver to the small intestine. It is comprised of the common bile duct that connects the liver and gall bladder to the small intestine and the cystic duct that connects the gall bladder to the common bile duct. (NCI)","Biliary Tract","SEND CT 2025-09-26"
"C48941","C74456",,"Anatomical Location","BLADDER WALL",,"The tissue layers that form the urinary bladder. They include the mucosa, submucosa, smooth muscle, and serosa.","Bladder Wall","SEND CT 2025-09-26"
"C12414","C74456",,"Anatomical Location","BLADDER","Urinary Bladder","The distensible sac-like organ that functions as a reservoir of urine, collecting from the kidneys and eliminating via the urethra. (NCI)","Bladder","SEND CT 2025-09-26"
"C198292","C74456",,"Anatomical Location","BLADDER, APEX",,"The anterosuperior part of the bladder that points towards the abdominal wall.","Bladder Apex","SEND CT 2025-09-26"
"C198293","C74456",,"Anatomical Location","BLADDER, BODY",,"The large area of the bladder situated between the apex and the fundus.","Bladder Body","SEND CT 2025-09-26"
"C12332","C74456",,"Anatomical Location","BLADDER, DOME","Dome of the Bladder","The upper, convex surface of the bladder. (NCI)","Dome of the Bladder","SEND CT 2025-09-26"
"C48939","C74456",,"Anatomical Location","BLADDER, FUNDUS","Fundus of the Bladder","The portion of the bladder that is formed by the posterior wall and is located opposite to the bladder opening. (NCI)","Bladder Fundus","SEND CT 2025-09-26"
"C12336","C74456",,"Anatomical Location","BLADDER, NECK","Neck of the Bladder","The inferior portion of the urinary bladder which is formed as the walls of the bladder converge and become contiguous with the proximal urethra. (NCI)","Bladder Neck","SEND CT 2025-09-26"
"C12331","C74456",,"Anatomical Location","BLADDER, TRIGONE","Trigone of the Bladder","The triangular area in the bladder mucosa that is formed by the two ureteral orifices and the urethral orifice. (NCI)","Bladder Trigone","SEND CT 2025-09-26"
"C12679","C74456",,"Anatomical Location","BLOOD VESSEL",,"A tubular structure through which the blood circulates in the body. Blood vessels constitute a network composed of arteries, arterioles, capillaries, venules, and veins. (NCI)","Blood Vessel","SEND CT 2025-09-26"
"C12434","C74456",,"Anatomical Location","BLOOD","Peripheral Blood; Whole Blood","A liquid tissue with the primary function of transporting oxygen and carbon dioxide. It supplies the tissues with nutrients, removes waste products, and contains various components of the immune system defending the body against infection.","Blood","SEND CT 2025-09-26"
"C12258","C74456",,"Anatomical Location","BODY OF STOMACH","Body of Stomach","The main section of the digestive tube that connects the esophagus to the small intestine. The body proper excludes the upper and lower sections of the fundus and pyloric portion respectively. (NCI)","Body of Stomach","SEND CT 2025-09-26"
"C13041","C74456",,"Anatomical Location","BODY","Whole Body","The entire physical structure of an organism. It is composed of anatomic systems, regions, cavities, and spaces. (NCI)","Body","SEND CT 2025-09-26"
"C12431","C74456",,"Anatomical Location","BONE MARROW",,"The tissue occupying the spaces of some bones. It consists of blood vessel sinuses and a network of hematopoietic cells.","Bone Marrow","SEND CT 2025-09-26"
"C12366","C74456",,"Anatomical Location","BONE",,"Calcified connective tissue that forms the skeletal components of the body. (NCI)","Bone","SEND CT 2025-09-26"
"C12681","C74456",,"Anatomical Location","BRACHIAL ARTERY",,"An artery of the forelimb; in general it arises from the axillary artery and branches to form the radial and ulnar arteries.","Brachial Artery","SEND CT 2025-09-26"
"C92221","C74456",,"Anatomical Location","BRACHIAL LYMPH NODE",,"Lymph node(s) adjacent to the brachial vein.","Brachial Lymph Node","SEND CT 2025-09-26"
"C12682","C74456",,"Anatomical Location","BRACHIAL PLEXUS","Brachial Plexus","A nerve network originating from spinal nerves in the cervical and thoracic vertebrae and giving rise to multiple nerves that innervate the arm/forelimb.","Brachial Plexus","SEND CT 2025-09-26"
"C12883","C74456",,"Anatomical Location","BRACHIAL VEIN",,"A vein of the arm/forelimb; in general it arises from the union of the radial and ulnar veins and drains into the axillary vein.","Brachial Vein","SEND CT 2025-09-26"
"C53149","C74456",,"Anatomical Location","BRACHIALIS MUSCLE",,"A muscle that originates from the lower two-thirds of the anterior surface of the humerus that flexes the elbow. (NCI)","Brachialis","SEND CT 2025-09-26"
"C32814","C74456",,"Anatomical Location","BRACHIOCEPHALIC ARTERY","Innominate Artery","An artery of the mediastinum; in general it arises from the aortic arch and branches to form the right subclavian artery and one or both common carotid arteries.","Innominate Artery","SEND CT 2025-09-26"
"C150849","C74456",,"Anatomical Location","BRACHIORADIALIS MUSCLE",,"A muscle in the forearm, in general extending from the proximal two-thirds of the lateral supracondylar ridge of the humerus and inserting into the styloid process of the radius; primary function is flexion of the elbow and pronation and supination of the forearm.","Brachioradialis Muscle","SEND CT 2025-09-26"
"C12441","C74456",,"Anatomical Location","BRAIN STEM","Brain Stem","The part of the brain that connects the cerebral hemispheres with the spinal cord. It consists of the mesencephalon, pons, and medulla oblongata. (NCI)","Brain Stem","SEND CT 2025-09-26"
"C12356","C74456",,"Anatomical Location","BRAIN VENTRICLE","Brain Ventricle","The four connected cavities (hollow spaces) centrally located within the brain that connect posteriorly with the central canal of the spinal cord. (NCI)","Brain Ventricle","SEND CT 2025-09-26"
"C12834","C74456",,"Anatomical Location","BRAIN VENTRICLE, LATERAL",,"The rostral extensions of the ventricular system of the brain consisting of two cavities, one on each side of the brain within the central regions of each cerebral hemisphere. Cerebrospinal fluid flows from the lateral ventricles into the centrally third ventricle via the foramen of Monroe. (NCI)","Lateral Ventricle","SEND CT 2025-09-26"
"C12439","C74456",,"Anatomical Location","BRAIN","Nervous System, Brain","An organ composed of gray and white matter that is the center for intelligence and reasoning. It is protected by the bony cranium.","Brain","SEND CT 2025-09-26"
"C32550","C74456",,"Anatomical Location","BRAIN, EXTERNAL CAPSULE",,"A thin lamina of white matter comprising long association fibers located between the claustrum and putamen in the brain, and which connects the midportion of the superotemporal region with the midportion of the ventral and lateral aspects of the prefrontal cortex.","External Capsule","SEND CT 2025-09-26"
"C12828","C74456",,"Anatomical Location","BRAIN, FOURTH VENTRICLE",,"A diamond-shaped cavity filled with cerebrospinal fluid within the pons, extending between the obex in the caudal medulla and the aqueduct of Sylvius in the cerebellum.","Fourth Ventricle","SEND CT 2025-09-26"
"C13082","C74456",,"Anatomical Location","BRAIN, INTERNAL CAPSULE",,"A white matter structure in the subcortical region of the brain that contains a high concentration of motor and sensory projection nerve fibers. It consists of the anterior limb, genu, posterior limb, and the retrolentiform and sublentiform parts.","Internal Capsule","SEND CT 2025-09-26"
"C132390","C74456",,"Anatomical Location","BRAIN, PERIVENTRICULAR REGION",,"The area of the body surrounding the ventricles of the brain.","Periventricular Region","SEND CT 2025-09-26"
"C12827","C74456",,"Anatomical Location","BRAIN, THIRD VENTRICLE",,"A centrally placed component of the ventricular system of the brain that is located in the diencephalon; the thalamus and the hypothalamus border the third ventricle.","Third Ventricle","SEND CT 2025-09-26"
"C12971","C74456",,"Anatomical Location","BREAST","Breast","One of two hemispheric projections of variable size situated in the subcutaneous layer over the pectoralis major muscle on either side of the chest. (NCI)","Breast","SEND CT 2025-09-26"
"C12318","C74456",,"Anatomical Location","BROAD LIGAMENT",,"A wide fold of peritoneum that connects the uterus to the lateral walls and floor of the pelvis, and also attaches to the ovaries, fallopian tubes, ovarian ligaments, round ligament of the uterus, and ovarian and uterine arteries.","Broad Ligament","SEND CT 2025-09-26"
"C221585","C74456",,"Anatomical Location","BRODMANN AREA 10","BA 10","One of 52 cytoarchitecturally or histologically defined portions of the brain that includes the area anterior-most portion of the prefrontal cortex and is involved in a variety of functions including but not limited to memory recall and executive functions.","Brodmann Area 10","SEND CT 2025-09-26"
"C221584","C74456",,"Anatomical Location","BRODMANN AREA 8","BA 8","One of 52 cytoarchitecturally or histologically defined portions of the brain that includes the area anterior to the premotor cortex and is involved in planning of complex movements and frontal eye fields.","Brodmann Area 8","SEND CT 2025-09-26"
"C186107","C74456",,"Anatomical Location","BRONCHIAL STUMP",,"The part of a bronchus that remains after resection.","Bronchial Stump","SEND CT 2025-09-26"
"C12684","C74456",,"Anatomical Location","BRONCHIOLE",,"The smallest subdivisions of the bronchial tree, which are both acartilagenous and aglandular.","Bronchiole","SEND CT 2025-09-26"
"C12683","C74456",,"Anatomical Location","BRONCHUS","Bronchi","Tubular structure in continuation with the trachea, serving as an air passage.","Bronchus","SEND CT 2025-09-26"
"C154770","C74456",,"Anatomical Location","BUCCAL LYMPH NODE","Buccinator Lymph Node","Lymph node(s) that are located superficial to the buccinator muscle.","Buccal Lymph Node","SEND CT 2025-09-26"
"C12505","C74456",,"Anatomical Location","BUCCAL MUCOSA",,"The mucosal membranes located on the inside of the cheek, in the buccal cavity. (NCI)","Buccal Mucosa","SEND CT 2025-09-26"
"C12902","C74456",,"Anatomical Location","BULBAR CONJUNCTIVA",,"The part of the conjunctiva that covers the eyeball.","Bulbar Conjunctiva","SEND CT 2025-09-26"
"C89806","C74456",,"Anatomical Location","BUTTOCK","Buttock","Either of the fleshy mounds in the rear pelvic area of the human body formed by the gluteal muscles.","Buttock","SEND CT 2025-09-26"
"C32239","C74456",,"Anatomical Location","C1 VERTEBRA","C1 Vertebra","The first of the seven cervical vertebrae. (NCI)","C1 Vertebra","SEND CT 2025-09-26"
"C32240","C74456",,"Anatomical Location","C2 VERTEBRA","C2 Vertebra","The second of the seven cervical vertebrae. (NCI)","C2 Vertebra","SEND CT 2025-09-26"
"C32241","C74456",,"Anatomical Location","C3 VERTEBRA","C3 Vertebra","The third of the seven cervical vertebrae. (NCI)","C3 Vertebra","SEND CT 2025-09-26"
"C32242","C74456",,"Anatomical Location","C4 VERTEBRA","C4 Vertebra","The fourth of the seven cervical vertebrae. (NCI)","C4 Vertebra","SEND CT 2025-09-26"
"C32243","C74456",,"Anatomical Location","C5 VERTEBRA","C5 Vertebra","The fifth of the seven cervical vertebrae. (NCI)","C5 Vertebra","SEND CT 2025-09-26"
"C32244","C74456",,"Anatomical Location","C6 VERTEBRA","C6 Vertebra","The sixth of the seven cervical vertebrae. (NCI)","C6 Vertebra","SEND CT 2025-09-26"
"C32245","C74456",,"Anatomical Location","C7 VERTEBRA","C7 Vertebra","The seventh of the seven cervical vertebrae. (NCI)","C7 Vertebra","SEND CT 2025-09-26"
"C142295","C74456",,"Anatomical Location","CALCANEAL TUBEROSITY",,"A roughened surface on the superior portion of the posterior half of the calcaneus, where the calcaneal (Achilles) tendon inserts.","Calcaneal Tuberosity","SEND CT 2025-09-26"
"C32250","C74456",,"Anatomical Location","CALCANEUS","Calcaneum; Calcaneus Bone","The irregular and largest tarsal bone that forms the heel. (NCI)","Calcaneum","SEND CT 2025-09-26"
"C32252","C74456",,"Anatomical Location","CALCARINE SULCUS",,"A cerebral fissure that originates near the occipital lobe and terminates below the corpus callosum. (NCI)","Calcarine Sulcus","SEND CT 2025-09-26"
"C154703","C74456",,"Anatomical Location","CALF MUSCULAR VEIN",,"Any of the veins located within the muscles of the posterior lower leg, such as the gastrocnemial, soleal, and gemellar veins.","Calf Muscular Vein","SEND CT 2025-09-26"
"C93027","C74456",,"Anatomical Location","CALF",,"The posterior aspect of the lower extremity that extends from the knee to the foot. (NCI)","Calf","SEND CT 2025-09-26"
"C32258","C74456",,"Anatomical Location","CANINE TOOTH","Canine Tooth","A single-cusped (pointed) and usually single-rooted tooth located between the incisors and premolars. (NCI)","Canine Tooth","SEND CT 2025-09-26"
"C12856","C74456",,"Anatomical Location","CAPITATE BONE","Capitate Bone","The largest of eight carpal bones, located in the center of the hand. (NCI)","Capitate Bone","SEND CT 2025-09-26"
"C139188","C74456",,"Anatomical Location","CAPITATE-HAMATE JOINT",,"A condyloid synovial joint within the wrist connecting the capitate bone to the hamate bone.","Capitate-Hamate Joint","SEND CT 2025-09-26"
"C139189","C74456",,"Anatomical Location","CAPITATE-LUNATE JOINT",,"A condyloid synovial joint within the wrist connecting the capitate bone to the lunate bone.","Capitate-Lunate Joint","SEND CT 2025-09-26"
"C12729","C74456",,"Anatomical Location","CARDIAC VALVE",,"A valve located in the heart.","Cardiac Valve","SEND CT 2025-09-26"
"C139201","C74456",,"Anatomical Location","CARDIAC WALL",,"All of the tissue that comprises the solid, outer structure of the heart, including the epicardium, the myocardium, and the endocardium.","Cardiac Wall","SEND CT 2025-09-26"
"C121555","C74456",,"Anatomical Location","CARDIOPHRENIC LYMPH NODE","Cardiophrenic Angle Lymph Node","A lymph node located in the angle between the heart and diaphragm.","Cardiophrenic Lymph Node","SEND CT 2025-09-26"
"C12686","C74456",,"Anatomical Location","CARDIOVASCULAR SYSTEM","Circulatory System","A collection of organs including the heart and the blood vessels.","Cardiovascular System","SEND CT 2025-09-26"
"C25264","C74456",,"Anatomical Location","CARINA","Carina, Tracheal","A ridge at the bifurcation of the trachea where the primary bronchi meet.","Carina","SEND CT 2025-09-26"
"C12687","C74456",,"Anatomical Location","CAROTID ARTERY","Common Carotid Artery","An artery of the mediastinum and neck; in general it arises as a primary or secondary branch of the aortic arch and branches into the internal and external carotid arteries.","Common Carotid Artery","SEND CT 2025-09-26"
"C66852","C74456",,"Anatomical Location","CAROTID BODY",,"A cluster of cells that function as chemo-receptors, located near the bifurcation of the carotid artery.","Carotid Body","SEND CT 2025-09-26"
"C12688","C74456",,"Anatomical Location","CARPAL BONE",,"Any of the bones of the joint located between the radius and ulna and metacarpus.","Carpal Bone","SEND CT 2025-09-26"
"C103912","C74456",,"Anatomical Location","CARPOMETACARPAL JOINT 1","CMC1","A saddle-shaped synovial joint between the metacarpal of the thumb and the trapezium. (NCI)","Carpometacarpal Joint 1","SEND CT 2025-09-26"
"C103913","C74456",,"Anatomical Location","CARPOMETACARPAL JOINT 2","CMC2","A plane joint primarily between the second metacarpal and the trapezoid, which also connects with the trapezium and capitate. (NCI)","Carpometacarpal Joint 2","SEND CT 2025-09-26"
"C103914","C74456",,"Anatomical Location","CARPOMETACARPAL JOINT 3","CMC3","A plane joint between the third metacarpal and the capitate. (NCI)","Carpometacarpal Joint 3","SEND CT 2025-09-26"
"C103915","C74456",,"Anatomical Location","CARPOMETACARPAL JOINT 4","CMC4","A plane joint between the fourth metacarpal and the hamate. (NCI)","Carpometacarpal Joint 4","SEND CT 2025-09-26"
"C103916","C74456",,"Anatomical Location","CARPOMETACARPAL JOINT 5","CMC5","A plane joint between the fifth metacarpal and the pisiform. (NCI)","Carpometacarpal Joint 5","SEND CT 2025-09-26"
"C32265","C74456",,"Anatomical Location","CARPOMETACARPAL JOINT",,"The articulation of the proximal bases of the metacarpal bones and the distal carpal bones in the fingers, and the first metacarpal bone and the trapezium bone of the wrist in the thumb.","Carpometacarpal Joint","SEND CT 2025-09-26"
"C12373","C74456",,"Anatomical Location","CARTILAGE",,"A type of connective tissue composed of chondrocytes and an extracellular matrix composed of collagen, elastin, and ground substance. There are three types of cartilage; namely elastic, hyaline, and fibrocartilage.","Cartilage","SEND CT 2025-09-26"
"C176319","C74456",,"Anatomical Location","CAUDAL VERTEBRA",,"Any of the vertebrae below or posterior to the sacral vertebrae and that form the tail.","Caudal Vertebra","SEND CT 2025-09-26"
"C12451","C74456",,"Anatomical Location","CAUDATE NUCLEUS",,"The gray matter adjacent to each lateral ventricle of the brain that comprises the medial dorsal striatum of the basal ganglia.","Caudate Nucleus","SEND CT 2025-09-26"
"C12381","C74456",,"Anatomical Location","CECUM",,"The pouch-like portion of the proximal large intestine opening into the colon.","Cecum","SEND CT 2025-09-26"
"C52846","C74456",,"Anatomical Location","CELIAC ARTERY","Celiac Trunk","An artery of the abdomen; in general it arises from the abdominal aorta below the diaphragm and branches to form the left gastric artery, common hepatic artery, and splenic artery.","Celiac Artery","SEND CT 2025-09-26"
"C65166","C74456",,"Anatomical Location","CELIAC LYMPH NODE","Celiac Axis Lymph Node; Celiac Lymph Node","A lymph node at the base of the celiac artery. (NCI)","Celiac Lymph Node","SEND CT 2025-09-26"
"C12438","C74456",,"Anatomical Location","CENTRAL NERVOUS SYSTEM",,"The part of the nervous system that consists of the brain, spinal cord, and meninges. (NCI)","Central Nervous System","SEND CT 2025-09-26"
"C32286","C74456",,"Anatomical Location","CEPHALIC VEIN","Vena Cephalica","A vein of the arm/forelimb; in general it arises from the dorsal venous network of the hand/forefoot and drains into the axillary vein.","Cephalic Vein","SEND CT 2025-09-26"
"C186108","C74456",,"Anatomical Location","CEREBELLAR LOBE",,"Any one of the individual lobes that make up the cerebellum of the brain.","Cerebellar Lobe","SEND CT 2025-09-26"
"C88147","C74456",,"Anatomical Location","CEREBELLAR PEDUNCLE",,"Any one of three pairs of nerve fiber bundles that originate from the cerebellum and link it to the brainstem.","Cerebellar Peduncle","SEND CT 2025-09-26"
"C33866","C74456",,"Anatomical Location","CEREBELLAR VERMIS",,"A medial, narrow structure connecting the two hemispheres of the cerebellum.","Vermis","SEND CT 2025-09-26"
"C12445","C74456",,"Anatomical Location","CEREBELLUM",,"The portion of the brain that extends from the brainstem through the cerebellar folia.","Cerebellum","SEND CT 2025-09-26"
"C12691","C74456",,"Anatomical Location","CEREBRAL ARTERY",,"Any artery supplying the cerebral cortex.","Cerebral Artery","SEND CT 2025-09-26"
"C12443","C74456",,"Anatomical Location","CEREBRAL CORTEX","Cerebral Cortex","The outer layer of the cerebrum composed of neurons and unmyelinated nerve fibers. It is responsible for memory, attention, consciousness and other higher levels of mental function.","Cerebral Cortex","SEND CT 2025-09-26"
"C32955","C74456",,"Anatomical Location","CEREBRAL HEMISPHERE, LEFT",,"The left half of the cerebrum.","Left Cerebral Hemisphere","SEND CT 2025-09-26"
"C33472","C74456",,"Anatomical Location","CEREBRAL HEMISPHERE, RIGHT",,"The right half of the cerebrum.","Right Cerebral Hemisphere","SEND CT 2025-09-26"
"C32291","C74456",,"Anatomical Location","CEREBRAL PEDUNCLE",,"The paired anterior portions of the midbrain consisting of the crus cerebri, the tegmentum, and the substantia nigra.","Cerebral Peduncle","SEND CT 2025-09-26"
"C98712","C74456",,"Anatomical Location","CEREBRAL SUBCORTEX","Cerebral Subcortex","The layer located below the cerebral cortex that includes the forebrain, midbrain and hindbrain. (NCI)","Cerebral Subcortex","SEND CT 2025-09-26"
"C53037","C74456",,"Anatomical Location","CEREBRAL VEIN",,"Any of the external or internal veins that drain the cerebral hemispheres.","Cerebral Vein","SEND CT 2025-09-26"
"C12351","C74456",,"Anatomical Location","CEREBRUM",,"The portion of the brain comprising the frontal, parietal, temporal, and occipital lobes and extending through the thalamus.","Cerebral Hemisphere","SEND CT 2025-09-26"
"C202889","C74456",,"Anatomical Location","CERVICAL LYMPH NODE LEVEL II",,"Cervical lymph nodes located in the upper jugular group above the level of the hyoid bone.","Neck Lymph Node Boundary Level II","SEND CT 2025-09-26"
"C132499","C74456",,"Anatomical Location","CERVICAL LYMPH NODE LEVEL III",,"Cervical lymph nodes located in the middle jugular group located between the hyoid bone and the cricoid cartilage.","Neck Lymph Node Boundary Level III","SEND CT 2025-09-26"
"C132500","C74456",,"Anatomical Location","CERVICAL LYMPH NODE LEVEL IV",,"Cervical lymph nodes located in the lower jugular group located around the lower third of the internal jugular vein extending from the inferior border of the cricoid cartilage (above) to the clavicle (below).","Neck Lymph Node Boundary Level IV","SEND CT 2025-09-26"
"C202890","C74456",,"Anatomical Location","CERVICAL LYMPH NODE LEVEL V",,"Cervical lymph nodes located in the posterior triangle group located posteriorly to the sternocleidomastoid muscle around the lower part of the spinal accessory nerve and the transverse cervical vessels.","Neck Lymph Node Boundary Level V","SEND CT 2025-09-26"
"C32298","C74456",,"Anatomical Location","CERVICAL LYMPH NODE",,"Lymph node(s) in the cervical region, or neck.","Cervical Lymph Node","SEND CT 2025-09-26"
"C69313","C74456",,"Anatomical Location","CERVICAL SPINE",,"The set of vertebrae immediately caudal to the skull.","Cervical Spine","SEND CT 2025-09-26"
"C12693","C74456",,"Anatomical Location","CERVICAL VERTEBRA",,"Any one of the seven vertebrae that are caudal to the skull, denoted as C1, C2, C3, C4, C5, C6 or C7.","Cervical Vertebra","SEND CT 2025-09-26"
"C178002","C74456",,"Anatomical Location","CERVICOVAGINAL REGION",,"The region of the body that comprises the uterine cervix and vagina. (NCI)","Cervicovaginal Region","SEND CT 2025-09-26"
"C12311","C74456",,"Anatomical Location","CERVIX UTERI","Cervix Uteri; Uterine Cervix","The portion of the uterus (or uterine horns) that empties into the vagina.","Cervix Uteri","SEND CT 2025-09-26"
"C13070","C74456",,"Anatomical Location","CHEEK",,"The soft tissue on the lateral aspects of the face, generally bounded by the eyes, nose, ear, and jaw line.","Cheek","SEND CT 2025-09-26"
"C62484","C74456",,"Anatomical Location","CHEST WALL","Chest Wall","The total system of structures outside the lungs that move as a part of breathing; it includes all structures from the skin to the parietal pleura. (NCI)","Chest Wall","SEND CT 2025-09-26"
"C25389","C74456",,"Anatomical Location","CHEST","Chest","The anterior side of the thorax from the neck to the abdomen. The shape of the chest is often regarded as potential insight into a disease process, as in the case of barrel chest and respiratory dysfunction. (NCI)","Chest","SEND CT 2025-09-26"
"C81169","C74456",,"Anatomical Location","CHIN",,"The part of the face below the lower lip and including the protruding part of the lower jaw.","Mentum","SEND CT 2025-09-26"
"C32307","C74456",,"Anatomical Location","CHORDAE TENDINEAE","Chorda Tendinea","Any of the tendons that connect the papillary muscles to the tricuspid and mitral valves.","Chordae Tendineae","SEND CT 2025-09-26"
"C12694","C74456",,"Anatomical Location","CHOROID PLEXUS",,"Blood vessels and ependyma forming villous structures in the ventricles of the brain.","Choroid Plexus","SEND CT 2025-09-26"
"C12344","C74456",,"Anatomical Location","CHOROID",,"A blood vessel-containing membrane of the eye that lies between the retina and the sclera. (NCI)","Choroid","SEND CT 2025-09-26"
"C12345","C74456",,"Anatomical Location","CILIARY BODY",,"Circumferential tissue located behind the iris and composed of muscle and epithelium.","Ciliary Body","SEND CT 2025-09-26"
"C52713","C74456",,"Anatomical Location","CINGULATE CORTEX",,"Part of the medial aspect of the cerebral cortex. (NCI)","Cingulate Cortex","SEND CT 2025-09-26"
"C102287","C74456",,"Anatomical Location","CIRCUMFLEX ARTERY AV GROOVE CONTINUATION ARTERY","CIRC AV; CIRCUMFLEX ARTERY AV GROOVE CONTINUATION ARTERY SEGMENT","The segment of the left circumflex artery that is distal to the third marginal branch, located in the atrioventricular groove.","Circumflex Artery AV Groove Continuation Artery","SEND CT 2025-09-26"
"C102286","C74456",,"Anatomical Location","CIRCUMFLEX, OBTUSE MARGINALS, LEFT POSTEROLATERAL AND LEFT POSTERIOR DESCENDING ARTERY BRANCHES",,"The left circumflex coronary artery and all of its branches.","Circumflex Artery and its Branches","SEND CT 2025-09-26"
"C12695","C74456",,"Anatomical Location","CLAVICLE",,"The paired bone that is situated between the sternum and the shoulder.","Clavicle","SEND CT 2025-09-26"
"C176323","C74456",,"Anatomical Location","CLAW",,"The curved, pointed appendage on the distal end of a digit, composed of keratin.","Claw","SEND CT 2025-09-26"
"C12308","C74456",,"Anatomical Location","CLITORIS",,"The erectile tissue in the vulva. It is composed of the corpora cavernosa and the glans clitoris.","Clitoris","SEND CT 2025-09-26"
"C12494","C74456",,"Anatomical Location","CLIVUS",,"A sloped depression between the dorsum sellae and foramen magnum at the base of the skull.","Clivus","SEND CT 2025-09-26"
"C32334","C74456",,"Anatomical Location","COCCYGEAL VERTEBRA","Coccygeal Vertebra","Four vertebral segments positioned at the base of the spine that are fused. (NCI)","Coccygeal Vertebra","SEND CT 2025-09-26"
"C12696","C74456",,"Anatomical Location","COCCYX","Coccyx","A small bone located at the bottom of the spine. The coccyx is a result of 3-5 fused rudimentary vertebrae. (NCI)","Coccyx","SEND CT 2025-09-26"
"C176317","C74456",,"Anatomical Location","COLON LYMPH NODE",,"A lymph node located in the colon.","Colon Lymph Node","SEND CT 2025-09-26"
"C176315","C74456",,"Anatomical Location","COLON WALL",,"The portion of the gastrointestinal tract wall that surrounds the cavity of the colon and contains teniae coli, haustra, and epiploic appendages.","Colon Wall","SEND CT 2025-09-26"
"C12382","C74456",,"Anatomical Location","COLON",,"The portion of the large intestine which extends from the cecum (or small intestine in animals that don't have a cecum) to the rectum.","Colon","SEND CT 2025-09-26"
"C12265","C74456",,"Anatomical Location","COLON, ASCENDING","Ascending Colon","The first part of the colon (large intestine) that starts in the right lower quadrant of the abdomen and ends at the transverse colon in the right upper quadrant of the abdomen. (NCI)","Ascending Colon","SEND CT 2025-09-26"
"C12268","C74456",,"Anatomical Location","COLON, DESCENDING","Descending Colon","The fourth portion of the large intestine (colon) that communicates with the transverse colon in the left-upper quadrant of the abdomen and the rectum below. (NCI)","Descending Colon","SEND CT 2025-09-26"
"C12266","C74456",,"Anatomical Location","COLON, HEPATIC FLEXURE","Hepatic Flexure; Right Colic Flexure","The bend at the junction of the ascending and transverse colon.","Hepatic Flexure","SEND CT 2025-09-26"
"C33929","C74456",,"Anatomical Location","COLON, LEFT","Left Colon","The portion of the large intestine that includes the descending and sigmoid colon. (NCI)","Left Colon","SEND CT 2025-09-26"
"C103438","C74456",,"Anatomical Location","COLON, RECTOSIGMOID",,"A portion of the large intestine that includes the sigmoid colon and rectum.","Rectosigmoid Colon","SEND CT 2025-09-26"
"C12383","C74456",,"Anatomical Location","COLON, RIGHT","Right Colon","The proximal segment of the large intestine that is located in the right side of the abdominal cavity. It includes the cecum (with the attached appendix) and the ascending colon. (NCI)","Right Colon","SEND CT 2025-09-26"
"C12384","C74456",,"Anatomical Location","COLON, SIGMOID","Sigmoid Colon","The portion of the colon that connects to the descending colon above and the rectum below. (NCI)","Sigmoid Colon","SEND CT 2025-09-26"
"C12267","C74456",,"Anatomical Location","COLON, SPLENIC FLEXURE","Left Colic Flexure; Splenic Flexure","The bend at the junction of the transverse and descending colon.","Splenic Flexure","SEND CT 2025-09-26"
"C12385","C74456",,"Anatomical Location","COLON, TRANSVERSE","Transverse Colon","The third division of the colon (large intestine). It communicates with the ascending colon in the upper right-hand quadrant of the abdomen and the descending colon in the upper left-hand quadrant. (NCI)","Transverse Colon","SEND CT 2025-09-26"
"C164003","C74456",,"Anatomical Location","COLONIC MUCOSA",,"The mucosal membranes that line the inner surface of the colon.","Colonic Mucosa","SEND CT 2025-09-26"
"C12698","C74456",,"Anatomical Location","COMMON BILE DUCT","Common Duct","A duct that conveys bile from the convergence of the cystic and hepatic duct to the duodenum.","Common Bile Duct","SEND CT 2025-09-26"
"C32354","C74456",,"Anatomical Location","COMMON FEMORAL ARTERY",,"An artery arising from the external iliac artery at the inguinal ligament which bifurcates forming the deep and superficial femoral arteries.","Common Femoral Artery","SEND CT 2025-09-26"
"C154771","C74456",,"Anatomical Location","COMMON FEMORAL VEIN",,"A vein that accompanies the common femoral artery and originates at the confluence of the femoral vein and the deep femoral vein.","Common Femoral Vein","SEND CT 2025-09-26"
"C32357","C74456",,"Anatomical Location","COMMON ILIAC ARTERY",,"An artery arising from the bifurcation of the abdominal aorta which then bifurcates forming the internal and external iliac arteries.","Common Iliac Artery","SEND CT 2025-09-26"
"C103384","C74456",,"Anatomical Location","COMMON ILIAC LYMPH NODE",,"A lymph node located adjacent to the common iliac artery. (NCI)","Common Iliac Lymph Node","SEND CT 2025-09-26"
"C52744","C74456",,"Anatomical Location","COMMON PALMAR DIGITAL ARTERY",,"Any of the arteries arising from the superficial palmar arch which run distally on the second, third and fourth lumbricals muscles to the interdigital clefts where each artery then separates into two proper palmar digital arteries.","Common Palmar Digital Artery","SEND CT 2025-09-26"
"C12341","C74456",,"Anatomical Location","CONJUNCTIVA",,"A thin tissue divided into the palpebral conjunctiva (covering the inner side of the eye lid) and the bulbar conjunctiva (covering the eyeball). (NCI)","Conjunctiva","SEND CT 2025-09-26"
"C12342","C74456",,"Anatomical Location","CORNEA",,"The transparent, avascular tissue covering the front of the eye and is continuous with the sclera.","Cornea","SEND CT 2025-09-26"
"C12707","C74456",,"Anatomical Location","CORNEAL ENDOTHELIUM",,"The endothelial layer of the cornea.","Corneal Endothelium","SEND CT 2025-09-26"
"C12928","C74456",,"Anatomical Location","CORNEAL EPITHELIUM",,"The epithelial layer of the cornea.","Corneal Epithelium","SEND CT 2025-09-26"
"C12699","C74456",,"Anatomical Location","CORNEAL STROMA",,"The stromal layer of the cornea.","Corneal Stroma","SEND CT 2025-09-26"
"C12843","C74456",,"Anatomical Location","CORONARY ARTERY",,"One of the arteries of the heart; in general it arises from the aortic root and supplies the myocardium.","Coronary Artery","SEND CT 2025-09-26"
"C32089","C74456",,"Anatomical Location","CORONARY ARTERY, ANTERIOR DESCENDING","Anterior Descending Coronary Artery; Left Anterior Descending Coronary Artery","A left coronary artery branch that descends on the anterior portion of the heart through the anterior interventricular groove. (NCI)","Anterior Descending Coronary Artery","SEND CT 2025-09-26"
"C12872","C74456",,"Anatomical Location","CORONARY ARTERY, LEFT","Left Coronary Artery; Left Main Coronary Artery; Left Main Coronary Artery Segment; LM","A coronary artery that arises from the aorta and bifurcates into the left anterior descending artery and the left circumflex artery. (NCI)","Left Coronary Artery","SEND CT 2025-09-26"
"C12875","C74456",,"Anatomical Location","CORONARY ARTERY, RIGHT","Right Coronary Artery","A coronary artery that originates above the right coronary cusp and supplies blood predominantly to the right side of the heart. (NCI)","Right Coronary Artery","SEND CT 2025-09-26"
"C32378","C74456",,"Anatomical Location","CORONARY SINUS",,"The coronary vein that terminates in the right atrium and transports deoxygenated blood from the coronary circulation.","Coronary Sinus","SEND CT 2025-09-26"
"C12882","C74456",,"Anatomical Location","CORONARY VEIN",,"A blood vessel in the heart which returns coronary blood to the right atrium.","Coronary Vein","SEND CT 2025-09-26"
"C12446","C74456",,"Anatomical Location","CORPUS CALLOSUM",,"A white matter structure within the brain that connects the left and right cerebral hemispheres.","Corpus Callosum","SEND CT 2025-09-26"
"C32216","C74456",,"Anatomical Location","CORPUS CALLOSUM, BODY",,"An area within the corpus callosum between the genu (anterior region) and the splenium (posterior region).","Body of the Corpus Callosum","SEND CT 2025-09-26"
"C32675","C74456",,"Anatomical Location","CORPUS CALLOSUM, GENU",,"The anterior portion of the corpus callosum that bends down and back.","Genu of the Corpus Callosum","SEND CT 2025-09-26"
"C33610","C74456",,"Anatomical Location","CORPUS CALLOSUM, SPLENIUM",,"The thick, convex posterior region of the corpus callosum.","Splenium of the Corpus Callosum","SEND CT 2025-09-26"
"C26465","C74456",,"Anatomical Location","CORPUS LUTEUM","Corpus Luteum","A group of cells that remain of the Graafian follicle following ovulation. This structure is composed of endocrine tissue and produces progesterone. This is needed to prepare the uterine lining for implantation by the fertilized egg. (NCI)","Corpus Luteum","SEND CT 2025-09-26"
"C12448","C74456",,"Anatomical Location","CORPUS STRIATUM",,"The portion of the brain consisting of the neostriatum and globus pallidus.","Corpus Striatum","SEND CT 2025-09-26"
"C12316","C74456",,"Anatomical Location","CORPUS UTERI","Uterine Body; Uterus, Corpus","The body of the uterus.","Corpus Uteri","SEND CT 2025-09-26"
"C163511","C74456",,"Anatomical Location","CORRUGATOR SUPERCILII MUSCLE",,"A muscle of the face, in general extending from the medial superciliary arch to the skin above the middle of the supraorbital margins; primary function is to move the eyebrows.","Corrugator Supercilii Muscle","SEND CT 2025-09-26"
"C32391","C74456",,"Anatomical Location","COSTAL CARTILAGE","Costal Cartilage","The cartilage positioned between the anterior end of the rib and the sternum. Its elasticity allows the ribcage to expand while breathing. (NCI)","Costal Cartilage","SEND CT 2025-09-26"
"C102288","C74456",,"Anatomical Location","COSTOCHONDRAL JOINT 1",,"The first hyaline cartilaginous joint between the ribs and costal cartilage.","Costochondral Joint 1","SEND CT 2025-09-26"
"C102289","C74456",,"Anatomical Location","COSTOCHONDRAL JOINT 7",,"The seventh hyaline cartilaginous joint between the ribs and costal cartilage.","Costochondral Joint 7","SEND CT 2025-09-26"
"C77638","C74456",,"Anatomical Location","CRANIAL CAVITY","Intracranial Cavity","The space that is formed by the bones of the skull, and contains the brain.","Cranial Cavity","SEND CT 2025-09-26"
"C12700","C74456",,"Anatomical Location","CRANIAL NERVE",,"Any of the 12 paired nerves that originate in the brain stem. (NCI)","Cranial Nerve","SEND CT 2025-09-26"
"C32414","C74456",,"Anatomical Location","CUBOID BONE","Cuboid Bone","A bone on the lateral side of the tarsus between the calcaneus and the fourth and fifth metatarsal bones. (NCI)","Cuboid Bone","SEND CT 2025-09-26"
"C32446","C74456",,"Anatomical Location","DELTOID MUSCLE",,"The muscle that creates the rounded contour of the shoulder which originates from the lateral third of the clavicle, the superior surface of the acromion process, and the posterior border of the spine of the scapula and inserts on the lateral side of the shaft of the humerus. (NCI)","Deltoid","SEND CT 2025-09-26"
"C174321","C74456",,"Anatomical Location","DENTAL ARCH",,"The curved or bowlike structure formed by the arrangement of teeth within the jaw.","Dental Arch","SEND CT 2025-09-26"
"C186109","C74456",,"Anatomical Location","DERMAL PAPILLAE OF THE FACE",,"Dermal projection on the face, generally associated with whiskers. (Makris S, Solomon HM, Clark R, Shiota K, Barbellion S, Buschmann J, Ema M, Fujiwara M, Grote K, Hazelden KP, Hew KW, Horimoto M, Ooshima Y, Parkinson M, Wise LD. Terminology of developmental abnormalities in common laboratory mammals (Version 2). Part B. Birth Defects Res B Dev Reprod Toxicol. 2009 Aug;86(4):227-327.)","Dermal Papillae of the Face","SEND CT 2025-09-26"
"C32455","C74456",,"Anatomical Location","DESCENDING AORTA",,"The portion of the aorta distal to the aortic arch which passes into the chest and abdomen to create the thoracic and abdominal segments.","Descending Aorta","SEND CT 2025-09-26"
"C12702","C74456",,"Anatomical Location","DIAPHRAGM",,"A musculotendinous sheet separating the thoracic cavity from the abdominal cavity.","Diaphragm","SEND CT 2025-09-26"
"C132391","C74456",,"Anatomical Location","DIAPHRAGMATIC LYMPH NODE",,"Lymph node located adjacent to the diaphragm.","Diaphragmatic Lymph Node","SEND CT 2025-09-26"
"C40186","C74456",,"Anatomical Location","DIGIT",,"The most distal structure of the limb, usually containing claws or nails and pads.","Digit","SEND CT 2025-09-26"
"C177918","C74456",,"Anatomical Location","DIGITAL ARTERY",,"A type of artery that supplies blood to the fingers and toes. In the hand, the digital arteries include the common palmar digital arteries that arise from the superficial palmar arch, the proper palmar digital arteries that are branches of the common palmar digital arteries and occasionally have dorsal branches distal to the proximal interphalangeal joints, and the dorsal digital arteries that are branches of the dorsal metacarpal arteries. In the foot, the digital arteries include the plantar digital arteries that arise from the plantar arch and the dorsal digital arteries that are branches of the dorsal metatarsal arteries. (NCI)","Digital Artery","SEND CT 2025-09-26"
"C102290","C74456",,"Anatomical Location","DISTAL CIRCUMFLEX ARTERY","DCIRC; DISTAL CIRCUMFLEX ARTERY SEGMENT","The segment of the left circumflex artery that is between the second and third obtuse marginal branches.","Distal Circumflex Artery","SEND CT 2025-09-26"
"C60801","C74456",,"Anatomical Location","DISTAL COMMON BILE DUCT",,"The portion of the common bile duct that is closest to the intestine and furthest from the hepatic and cystic ducts.","Distal Common Bile Duct","SEND CT 2025-09-26"
"C174320","C74456",,"Anatomical Location","DISTAL EXTRAHEPATIC BILE DUCT REGION",,"The area of the body that extends from where the cystic duct meets the common bile duct to the common bile duct's insertion into the small intestine.","Distal Extrahepatic Bile Duct Region","SEND CT 2025-09-26"
"C139208","C74456",,"Anatomical Location","DISTAL FEMUR R1",,"The portion of the distal femur, identified during a dual x-ray absorptiometry (DXA) scan, that contains primarily metaphyseal or trabecular bone.","Distal Femur R1","SEND CT 2025-09-26"
"C114198","C74456",,"Anatomical Location","DISTAL INTERPHALANGEAL JOINT 2 OF THE FOOT","DIP2 of the Foot","A ginglymoid (hinge) synovial joint within the second digit of the foot articulating the middle and distal phalanges. (NCI)","Distal Interphalangeal Joint 2 of the Foot","SEND CT 2025-09-26"
"C114188","C74456",,"Anatomical Location","DISTAL INTERPHALANGEAL JOINT 2 OF THE HAND","DIP2 of the Hand","A ginglymoid (hinge) synovial joint within the second digit of the hand articulating the middle and distal phalanges. (NCI)","Distal Interphalangeal Joint 2 of the Hand","SEND CT 2025-09-26"
"C102291","C74456",,"Anatomical Location","DISTAL INTERPHALANGEAL JOINT 2","DIP2","A condyloid synovial joint within the second digit of the hand or foot articulating the middle and distal phalanges. (NCI)","Distal Interphalangeal Joint 2","SEND CT 2025-09-26"
"C114199","C74456",,"Anatomical Location","DISTAL INTERPHALANGEAL JOINT 3 OF THE FOOT","DIP3 of the Foot","A ginglymoid (hinge) synovial joint within the third digit of the foot articulating the middle and distal phalanges. (NCI)","Distal Interphalangeal Joint 3 of the Foot","SEND CT 2025-09-26"
"C114189","C74456",,"Anatomical Location","DISTAL INTERPHALANGEAL JOINT 3 OF THE HAND","DIP3 of the Hand","A ginglymoid (hinge) synovial joint within the third digit of the hand articulating the middle and distal phalanges. (NCI)","Distal Interphalangeal Joint 3 of the Hand","SEND CT 2025-09-26"
"C102292","C74456",,"Anatomical Location","DISTAL INTERPHALANGEAL JOINT 3","DIP3","A condyloid synovial joint within the third digit of the hand or foot articulating the middle and distal phalanges. (NCI)","Distal Interphalangeal Joint 3","SEND CT 2025-09-26"
"C114275","C74456",,"Anatomical Location","DISTAL INTERPHALANGEAL JOINT 4 OF THE FOOT","DIP4 of the Foot","A ginglymoid (hinge) synovial joint within the fourth digit of the foot articulating the middle and distal phalanges. (NCI)","Distal Interphalangeal Joint 4 of the Foot","SEND CT 2025-09-26"
"C114273","C74456",,"Anatomical Location","DISTAL INTERPHALANGEAL JOINT 4 OF THE HAND","DIP4 of the Hand","A ginglymoid (hinge) synovial joint within the fourth digit of the hand articulating the middle and distal phalanges. (NCI)","Distal Interphalangeal Joint 4 of the Hand","SEND CT 2025-09-26"
"C102293","C74456",,"Anatomical Location","DISTAL INTERPHALANGEAL JOINT 4","DIP4","A condyloid synovial joint within the fourth digit of the hand or foot articulating the middle and distal phalanges. (NCI)","Distal Interphalangeal Joint 4","SEND CT 2025-09-26"
"C114276","C74456",,"Anatomical Location","DISTAL INTERPHALANGEAL JOINT 5 OF THE FOOT","DIP5 of the Foot","A ginglymoid (hinge) synovial joint within the fifth digit of the foot articulating the middle and distal phalanges. (NCI)","Distal Interphalangeal Joint 5 of the Foot","SEND CT 2025-09-26"
"C114274","C74456",,"Anatomical Location","DISTAL INTERPHALANGEAL JOINT 5 OF THE HAND","DIP5 of the Hand","A ginglymoid (hinge) synovial joint within the fifth digit of the hand articulating the middle and distal phalanges. (NCI)","Distal Interphalangeal Joint 5 of the Hand","SEND CT 2025-09-26"
"C102294","C74456",,"Anatomical Location","DISTAL INTERPHALANGEAL JOINT 5","DIP5","A condyloid synovial joint within the fifth digit of the hand or foot articulating the middle and distal phalanges. (NCI)","Distal Interphalangeal Joint 5","SEND CT 2025-09-26"
"C102295","C74456",,"Anatomical Location","DISTAL LAD ARTERY","DISTAL LAD ARTERY SEGMENT; DLAD","The segment of the left anterior descending (LAD) artery that is distal to the third diagonal branch.","Distal Left Anterior Descending Artery","SEND CT 2025-09-26"
"C139190","C74456",,"Anatomical Location","DISTAL PHALANX 2 OF THE HAND",,"The bone that forms the tip of the second finger, as counted from the thenar side of the hand.","Hand Digit 2 Distal Phalanx","SEND CT 2025-09-26"
"C139191","C74456",,"Anatomical Location","DISTAL PHALANX 3 OF THE HAND",,"The bone that forms the tip of the third finger, as counted from the thenar side of the hand.","Hand Digit 3 Distal Phalanx","SEND CT 2025-09-26"
"C139192","C74456",,"Anatomical Location","DISTAL PHALANX 4 OF THE HAND",,"The bone that forms the tip of the fourth finger, as counted from the thenar side of the hand.","Hand Digit 4 Distal Phalanx","SEND CT 2025-09-26"
"C139193","C74456",,"Anatomical Location","DISTAL PHALANX 5 OF THE HAND",,"The bone that forms the tip of the fifth finger, as counted from the thenar side of the hand.","Hand Digit 5 Distal Phalanx","SEND CT 2025-09-26"
"C139194","C74456",,"Anatomical Location","DISTAL RADIOULNAR JOINT",,"The articulation of the distal head of the ulna bone and the ulnar notch of the radius.","Distal Radioulnar Joint","SEND CT 2025-09-26"
"C102296","C74456",,"Anatomical Location","DISTAL RIGHT CORONARY ARTERY CONDUIT","DISTAL RIGHT CORONARY ARTERY CONDUIT SEGMENT; DRCA","The section of the right coronary artery distal to the origin of the acute marginal artery.","Distal Right Coronary Artery Conduit","SEND CT 2025-09-26"
"C106042","C74456",,"Anatomical Location","DISTANT LYMPH NODE",,"Lymph node(s) that is distant to the anatomic region of interest.","Distant Lymph Node","SEND CT 2025-09-26"
"C12934","C74456",,"Anatomical Location","DORSAL MOTOR NUCLEUS",,"A brain nucleus located in the medulla oblongata. (NCI)","Dorsal Motor Nucleus","SEND CT 2025-09-26"
"C32478","C74456",,"Anatomical Location","DORSALIS PEDIS ARTERY","Dorsal Pedal Artery; Dorsalis Pedis Artery","An artery of the dorsal surface of the foot, originating from the anterior tibial artery of the lower leg. The following arterial branches originate from the dorsalis pedis artery: the arcuate artery of the foot and deep plantar artery. (NCI)","Dorsalis Pedis Artery","SEND CT 2025-09-26"
"C52854","C74456",,"Anatomical Location","DUCTUS ARTERIOSUS",,"An embryonic blood vessel that allows blood to bypass the lungs by connecting the pulmonary artery and the proximal descending aorta.","Ductus Arteriosus","SEND CT 2025-09-26"
"C12263","C74456",,"Anatomical Location","DUODENUM",,"The portion of the small intestine between the stomach and jejunum.","Duodenum","SEND CT 2025-09-26"
"C32488","C74456",,"Anatomical Location","DURA MATER",,"The outermost, toughest, and most fibrous of the three membranes (meninges) that surround and protect the brain and spinal cord. (NCI)","Dura Mater","SEND CT 2025-09-26"
"C102627","C74456",,"Anatomical Location","DURAL VENOUS SINUS",,"Venous channels within the dura mater of the brain which receives both blood from blood vessels within the brain as well as cerebrospinal fluid then drains into the internal jugular vein. Unlike other blood vessels, dural venous sinuses lack valves and other vessel associated layers.","Dural Venous Sinus","SEND CT 2025-09-26"
"C12394","C74456",,"Anatomical Location","EAR",,"A sensory organ that contains auditory and vestibular apparatuses.","Ear","SEND CT 2025-09-26"
"C12499","C74456",,"Anatomical Location","EAR, INNER","Internal Ear; Labyrinth","The innermost portion of the ear that contains the vestibule, cochlea and semicircular canals.","Inner Ear","SEND CT 2025-09-26"
"C12292","C74456",,"Anatomical Location","EAR, OUTER","Auricle; External Ear; Pinna","The external part of the ear. (NCI)","External Ear","SEND CT 2025-09-26"
"C32999","C74456",,"Anatomical Location","EARLOBE",,"The soft fleshy portion of the lower external ear composed of areolar and adipose connective tissues. (NCI)","Lobule of the Auricle","SEND CT 2025-09-26"
"C163512","C74456",,"Anatomical Location","ELBOW EXTENSOR MUSCLES",,"A group of two muscles in the upper extremity, the triceps brachii and anconeus; primary function is to straighten the arm at the elbow joint.","Elbow Extensors","SEND CT 2025-09-26"
"C163513","C74456",,"Anatomical Location","ELBOW FLEXOR MUSCLES",,"A group of three muscles in the upper extremity, the brachialis, biceps brachii, and the brachioradialis; primary function is to bend the arm at the elbow joint.","Elbow Flexors","SEND CT 2025-09-26"
"C214697","C74456",,"Anatomical Location","ELBOW JOINT TENDONS",,"The tendons that connect the muscles of the forearm and upper arm to the bones of the elbow joint.","Elbow Joint Tendon","SEND CT 2025-09-26"
"C32497","C74456",,"Anatomical Location","ELBOW JOINT","Elbow; Elbow Joint","A joint involving the humerus, radius and ulna bones.","Elbow Joint","SEND CT 2025-09-26"
"C13004","C74456",,"Anatomical Location","ENDOCARDIUM",,"The layer of endothelial cells and connective tissue lining the chambers of the heart. (NCI)","Endocardium","SEND CT 2025-09-26"
"C12309","C74456",,"Anatomical Location","ENDOCERVIX",,"The portion of the cervix which is lined by single columnar epithelium (mucosa). (NCI)","Endocervix","SEND CT 2025-09-26"
"C32514","C74456",,"Anatomical Location","ENDOMETRIAL CAVITY","Endometrial Cavity","A space inside the uterus lined by a layer of mucous membranes called the endometrium.","Endometrial Cavity","SEND CT 2025-09-26"
"C12313","C74456",,"Anatomical Location","ENDOMETRIUM",,"The mucous membrane comprising the inner layer of the uterine wall.","Endometrium","SEND CT 2025-09-26"
"C97338","C74456",,"Anatomical Location","ENTORHINAL CORTEX",,"A brain region in the medial temporal lobe near the hippocampus. (NCI)","Entorhinal Cortex","SEND CT 2025-09-26"
"C13164","C74456",,"Anatomical Location","EPICARDIUM",,"The outer membranous connective tissue layer of the heart tissue. (NCI)","Epicardium","SEND CT 2025-09-26"
"C69300","C74456",,"Anatomical Location","EPICONDYLE","Epicondyle","A bone prominence to which ligaments and tendons of the joints are attached. (NCI)","Epicondyle","SEND CT 2025-09-26"
"C12328","C74456",,"Anatomical Location","EPIDIDYMIS",,"A crescent-like structure located adjacent to the testis. It consists of a single highly coiled duct and is divided into 3 regions: caput (head), corpus (body) and cauda (tail).","Epididymis","SEND CT 2025-09-26"
"C41449","C74456",,"Anatomical Location","EPIDURAL SPACE",,"The body space between the dura mater and the walls of the vertebral canal.","Epidural Spinal Space","SEND CT 2025-09-26"
"C139195","C74456",,"Anatomical Location","EPIGASTRIC LYMPH NODE",,"A parietal lymph node located along the inferior epigastric vessels.","Epigastric Lymph Node","SEND CT 2025-09-26"
"C32525","C74456",,"Anatomical Location","EPIGASTRIC REGION",,"The most superior, central area of the abdomen, lying immediately superior to the umbilicus and bounded laterally by the costal margins.","Epigastric Region","SEND CT 2025-09-26"
"C12709","C74456",,"Anatomical Location","EPIGLOTTIS","Epiglottis","A small cartilagenous flap-like valve that closes over the larynx during swallowing to prevent food entering the lungs. (NCI)","Epiglottis","SEND CT 2025-09-26"
"C98182","C74456",,"Anatomical Location","EPITROCHLEAR LYMPH NODE",,"A lymph node located above and adjacent to the elbow. (NCI)","Epitrochlear Lymph Node","SEND CT 2025-09-26"
"C139196","C74456",,"Anatomical Location","ESOPHAGEAL LYMPH NODE",,"Any lymph node located near the esophagus, including cervical, and upper, middle, and lower thoracic lymph nodes.","Esophageal Lymph Node","SEND CT 2025-09-26"
"C32538","C74456",,"Anatomical Location","ESOPHAGEAL MUCOSA",,"The mucosal membranes that line the inner surface of the esophagus.","Esophageal Mucosa","SEND CT 2025-09-26"
"C12389","C74456",,"Anatomical Location","ESOPHAGUS",,"The portion of the digestive tract between the pharynx and stomach.","Esophagus","SEND CT 2025-09-26"
"C12252","C74456",,"Anatomical Location","ESOPHAGUS, ABDOMINAL","Abdominal Esophagus","Clinical esophageal segment composed of smooth muscle. It corresponds to the inferior part of the lower third topographic segment of the esophagus. (NCI)","Abdominal Esophagus","SEND CT 2025-09-26"
"C12250","C74456",,"Anatomical Location","ESOPHAGUS, CERVICAL","Cervical Esophagus","Clinical esophageal segment composed of skeletal muscle. It corresponds to the superior part of the upper third topographic segment of the esophagus. (NCI)","Cervical Esophagus","SEND CT 2025-09-26"
"C12255","C74456",,"Anatomical Location","ESOPHAGUS, LOWER THIRD","Lower Third of the Esophagus","The lower one third of the esophagus in which the muscle layer is composed of muscle cells predominantly of the smooth type. (NCI)","Lower Third of the Esophagus","SEND CT 2025-09-26"
"C12254","C74456",,"Anatomical Location","ESOPHAGUS, MIDDLE THIRD","Middle Third of the Esophagus","The middle one third of the esophagus in which the muscle layer is composed of muscle cells of the striated and smooth types.","Middle Third of the Esophagus","SEND CT 2025-09-26"
"C198294","C74456",,"Anatomical Location","ESOPHAGUS, THORACIC LOWER",,"The portion of the thoracic esophagus from midway between the tracheal bifurcation and gastroesophageal junction to gastroesophageal junction, including abdominal esophagus. (SEER)","Lower Thoracic Esophagus","SEND CT 2025-09-26"
"C198295","C74456",,"Anatomical Location","ESOPHAGUS, THORACIC MID","Middle Thoracic Esophagus","The portion of the thoracic esophagus from the tracheal bifurcation midway to the gastroesophageal junction. (SEER)","Middle Thoracic Esophagus","SEND CT 2025-09-26"
"C198296","C74456",,"Anatomical Location","ESOPHAGUS, THORACIC UPPER",,"The portion of the thoracic esophagus from the thoracic inlet to the level of the tracheal bifurcation. (SEER)","Upper Thoracic Esophagus","SEND CT 2025-09-26"
"C12251","C74456",,"Anatomical Location","ESOPHAGUS, THORACIC","Thoracic Esophagus","Clinical esophageal segment composed of smooth muscle. It includes the middle third topographic segment, as well as parts of the upper and lower thirds. (NCI)","Thoracic Esophagus","SEND CT 2025-09-26"
"C12253","C74456",,"Anatomical Location","ESOPHAGUS, UPPER THIRD","Upper Third of the Esophagus","The upper one third of esophagus in which the muscle layer is composed of muscle cells of the striated type. (NCI)","Upper Third of the Esophagus","SEND CT 2025-09-26"
"C12711","C74456",,"Anatomical Location","ETHMOID BONE","Ethmoid Bone","A light and spongy bone that is cubical in shape. This bone is positioned at the anterior part of the cranium, sitting between the two orbits, at the roof of the nose. It consists of four parts: a horizontal or cribriform plate; a perpendicular plate; and two lateral masses or labyrinths. (NCI)","Ethmoid Bone","SEND CT 2025-09-26"
"C12276","C74456",,"Anatomical Location","ETHMOID SINUS","Ethmoid Sinus","A sinus of the meatuses of the nasal cavity. (NCI)","Ethmoid Sinus","SEND CT 2025-09-26"
"C186110","C74456",,"Anatomical Location","EXOCCIPITAL BONE",,"The lateral portions of the occipital bone lying on either side of the foramen magnum; it is present during fetal development and later fuses with the occipital bone.","Exoccipital Bone","SEND CT 2025-09-26"
"C187833","C74456",,"Anatomical Location","EXTENSOR CARPI RADIALIS MUSCLES",,"A group of two muscles of the hand, the extensor carpi radialis brevis and extensor carpi radialis longus. Primary function is radial extension and abduction or deviation of the wrist.","Extensor Carpi Radialis Muscles","SEND CT 2025-09-26"
"C52914","C74456",,"Anatomical Location","EXTENSOR CARPI ULNARIS MUSCLE",,"A muscle of the wrist, in general extending from the humeral and ulnar heads to the base of the fifth metacarpal bone; primary function is to extend and abduct the wrist toward the ulna.","Extensor Carpi Ulnaris","SEND CT 2025-09-26"
"C186111","C74456",,"Anatomical Location","EXTENSOR DIGITI MINIMI MUSCLE",,"A muscle of the forearm, in general extending from the lateral epicondyle of the humerus to the extensor expansion of the fifth digit; primary function is to extend the fifth digit at the metacarpophalangeal joint.","Extensor Digiti Minimi Muscle","SEND CT 2025-09-26"
"C163514","C74456",,"Anatomical Location","EXTENSOR DIGITORUM BREVIS MUSCLE",,"A muscle in the foot, in general extending from the superolateral surface of the anterior calcaneus to the lateral sides of the tendons of extensor digitorum longus on the second, third and fourth toes; primary function is to extend the second, third and fourth toes.","Extensor Digitorum Brevis Muscle","SEND CT 2025-09-26"
"C52918","C74456",,"Anatomical Location","EXTENSOR DIGITORUM LONGUS MUSCLE","Long Digital Extensor Muscle","A muscle extending from the lateral surface of the tibia to the digits; primary function is the extension of the digits and flexion of the tarsal joint.","Extensor Digitorum Longus","SEND CT 2025-09-26"
"C52916","C74456",,"Anatomical Location","EXTENSOR DIGITORUM MUSCLE",,"A muscle of the hand, in general extending from the lateral epicondyle of the humerus to the base of the proximal, middle, and distal phalanges; primary function is to extend the fingers.","Extensor Digitorum Communis","SEND CT 2025-09-26"
"C163515","C74456",,"Anatomical Location","EXTENSOR HALLUCIS BREVIS MUSCLE",,"A muscle in the foot, in general extending from the superior surface of the anterior calcaneus to the dorsal surface of the base of the proximal phalanx of the big toe; primary function is to extend the big toe.","Extensor Hallucis Brevis Muscle","SEND CT 2025-09-26"
"C186112","C74456",,"Anatomical Location","EXTENSOR HALLUCIS LONGUS MUSCLE",,"A muscle of the lower leg, in general extending from the middle third of the medial surface of the fibula and the adjacent interosseous membrane to the base and dorsal center of the distal phalanx of the great toe; primary function is to extend the big toe and dorsiflex the ankle.","Extensor Hallucis Longus Muscle","SEND CT 2025-09-26"
"C186113","C74456",,"Anatomical Location","EXTENSOR INDICIS PROPRIUS MUSCLE",,"A muscle of the forearm, in general extending from the posterior surface of the ulna to the base of the second proximal phalanx and the tendon of the extensor digitorum muscle; primary function is to extend the second digit at metacarpophalangeal and interphalangeal joints.","Extensor Indicis Proprius Muscle","SEND CT 2025-09-26"
"C186114","C74456",,"Anatomical Location","EXTENSOR POLLICIS BREVIS MUSCLE",,"A muscle of the forearm, in general extending from the posterior surface of the distal third of the radius and the adjacent interosseous membrane to the posterior surface of the base of the proximal phalanx of the thumb; primary function is to extend the thumb at the carpometacarpal and metacarpophalangeal joints.","Extensor Pollicis Brevis Muscle","SEND CT 2025-09-26"
"C186115","C74456",,"Anatomical Location","EXTENSOR POLLICIS LONGUS MUSCLE",,"A muscle of the forearm, in general extending from the posterior surface of the middle third of the ulna and the adjacent interosseous membrane to the posterior surface of the base of the distal phalanx of the thumb; primary function is to extend the thumb at the metacarpophalangeal and interphalangeal joints and extend and abduct the wrist joint.","Extensor Pollicis Longus Muscle","SEND CT 2025-09-26"
"C12498","C74456",,"Anatomical Location","EXTERNAL ACOUSTIC MEATUS","Auditory Canal; Ear Canal; External Acoustic Meatus; External Auditory Canal; External Auditory Meatus","A tubular structure that runs from the outer ear to the tympanic membrane.","External Acoustic Meatus","SEND CT 2025-09-26"
"C32558","C74456",,"Anatomical Location","EXTERNAL ILIAC ARTERY",,"An artery arising from the bifurcation of the common iliac artery in the lower torso. The external iliac artery becomes the femoral artery and is the main blood supply for the leg.","External Iliac Artery","SEND CT 2025-09-26"
"C88143","C74456",,"Anatomical Location","EXTERNAL ILIAC LYMPH NODE",,"A lymph node located along the external iliac artery. (NCI)","External Iliac Lymph Node","SEND CT 2025-09-26"
"C165584","C74456",,"Anatomical Location","EXTRAABDOMINAL LYMPH NODE",,"A lymph node that is located outside of the abdominal wall.","Extra-Abdominal Lymph Node","SEND CT 2025-09-26"
"C32573","C74456",,"Anatomical Location","EXTRAHEPATIC BILE DUCT",,"The portion of the biliary tract outside the liver; the common hepatic duct joins the cystic duct to form the common bile duct. (NCI)","Extrahepatic Bile Duct","SEND CT 2025-09-26"
"C174319","C74456",,"Anatomical Location","EXTRAHEPATIC PERIHILAR BILE DUCT REGION",,"The area of the body where the right and left hepatic ducts exit the liver and join to form the common hepatic duct that is proximal to the origin of the cystic duct. (PDQ)","Extrahepatic Perihilar Bile Duct Region","SEND CT 2025-09-26"
"C202395","C74456",,"Anatomical Location","EXTRANODAL REGION",,"Any portion of the body that lies outside of a lymph node.","Extranodal Region","SEND CT 2025-09-26"
"C33199","C74456",,"Anatomical Location","EXTRAOCULAR MUSCLE","Oculomotor Muscle","A group of muscles in the orbit extending from the posterior orbit to the eye and upper eyelid; primary function is the movement of the eye and retraction of the upper eyelid.","Extraocular Muscle","SEND CT 2025-09-26"
"C176325","C74456",,"Anatomical Location","EYE BULGE",,"The external protuberance of the eyeball beneath the eyelid. (Makris S, Solomon HM, Clark R, Shiota K, Barbellion S, Buschmann J, Ema M, Fujiwara M, Grote K, Hazelden KP, Hew KW, Horimoto M, Ooshima Y, Parkinson M, Wise LD. Terminology of developmental abnormalities in common laboratory mammals (Version 2). Part B. Birth Defects Res B Dev Reprod Toxicol. 2009 Aug;86(4):227-327.)","Eye Bulge","SEND CT 2025-09-26"
"C12401","C74456",,"Anatomical Location","EYE","Eyeball","The sensory organ of vision.","Eye","SEND CT 2025-09-26"
"C12667","C74456",,"Anatomical Location","EYE, ANTERIOR CHAMBER",,"The space in the eye filled with aqueous humor and bounded by the cornea, a small portion of the sclera, a small portion of the ciliary body, the iris and lens. (Cline et al., Dictionary of Visual Science, 4th ed, p109)","Anterior Chamber of the Eye","SEND CT 2025-09-26"
"C12668","C74456",,"Anatomical Location","EYE, ANTERIOR SEGMENT",,"The front part of the eye, which is posteriorly bordered by posterior surfaces of the posterior lens capsule, lens zonules, and ciliary body; it includes the cornea, conjunctiva, lacrimal gland, tear film, iris, lens, ciliary body, anterior portion of the sclera, and anterior chamber.","Anterior Eye Segment","SEND CT 2025-09-26"
"C33885","C74456",,"Anatomical Location","EYE, VITREOUS CHAMBER","Postremal Chamber","The largest space within the eye which is bounded by the lens and the retina and filled with the gelatinous vitreous humor. (NCI)","Vitreous Chamber","SEND CT 2025-09-26"
"C32575","C74456",,"Anatomical Location","EYEBROW",,"The arched strip of hairs (supercilia) on the brow ridge (supercilium) above each eye socket.","Eyebrow","SEND CT 2025-09-26"
"C32576","C74456",,"Anatomical Location","EYELASH",,"Anyone of the short hairs that grow on the edge of the eyelid. (NCI)","Eyelash","SEND CT 2025-09-26"
"C12713","C74456",,"Anatomical Location","EYELID","Palpebra","The section of skin, containing muscle and conjunctiva, that covers and protects the eye.","Eyelid","SEND CT 2025-09-26"
"C13071","C74456",,"Anatomical Location","FACE",,"The portion of the head that contains the structures such as the eyes, nose, mouth, and jaws.","Face","SEND CT 2025-09-26"
"C32577","C74456",,"Anatomical Location","FACET JOINT","Facet Joint","A synovial joint between two adjacent vertebrae. The facet joint links the articular process of one vertebra and the inferior articular process of the adjacent vertebra. (NCI)","Facet Joint","SEND CT 2025-09-26"
"C63706","C74456",,"Anatomical Location","FACIAL BONE","Facial Bone","Any bone that contributes to the facial structures, except those bones that are part of the braincase. (NCI)","Facial Bone","SEND CT 2025-09-26"
"C13073","C74456",,"Anatomical Location","FACIAL MUSCLE","Mimetic Muscles","Any of the muscles of the face that are supplied by the facial nerve and control facial expressions.","Facial Muscle","SEND CT 2025-09-26"
"C12714","C74456",,"Anatomical Location","FACIAL NERVE","Seventh Cranial Nerve","A cranial nerve extending from the brain stem between the pons and medulla, which innervates the facial muscles, glands and the tongue.","Facial Nerve","SEND CT 2025-09-26"
"C32582","C74456",,"Anatomical Location","FALCIFORM LIGAMENT",,"A fold of tissue consisting of two layers of peritoneum extending from the notch of the anterior margin of the liver to the anterior abdominal wall and diaphragm.","Falciform Ligament","SEND CT 2025-09-26"
"C12403","C74456",,"Anatomical Location","FALLOPIAN TUBE","Fallopian Tube","The tube through which eggs pass from an ovary.","Fallopian Tube","SEND CT 2025-09-26"
"C13108","C74456",,"Anatomical Location","FASCIA",,"A sheet or band of fibrous connective tissue enveloping, separating, or binding together muscles, organs and other soft structures of the body.","Fascia","SEND CT 2025-09-26"
"C176326","C74456",,"Anatomical Location","FAT PAD",,"Encapsulated adipose tissue within the body.","Fat Pad","SEND CT 2025-09-26"
"C181454","C74456",,"Anatomical Location","FAUCES","Isthmus of Fauces; Oropharyngeal Isthmus","The anatomical opening formed by the arch of the hard palate at the back of the mouth, where the oral cavity and pharynx meet.","Oropharyngeal Isthmus","SEND CT 2025-09-26"
"C61600","C74456",,"Anatomical Location","FEMALE GENITALIA","Female Genitalia","Female internal and external organs of reproduction.","Female Genitalia","SEND CT 2025-09-26"
"C12402","C74456",,"Anatomical Location","FEMALE REPRODUCTIVE SYSTEM",,"The sex organs of the female.","Female Reproductive System","SEND CT 2025-09-26"
"C12715","C74456",,"Anatomical Location","FEMORAL ARTERY",,"An artery of the thigh; in general it arises from the external iliac artery distal to the inguinal ligment and continues as the popliteal artery.","Femoral Artery","SEND CT 2025-09-26"
"C114186","C74456",,"Anatomical Location","FEMORAL CONDYLE",,"The rounded bony projection at the distal end of the femur.","Femoral Condyle","SEND CT 2025-09-26"
"C32718","C74456",,"Anatomical Location","FEMORAL HEAD","Femur Head","The highest portion of the femoral bone that articulates with the acetabulum. (NCI)","Head of the Femur","SEND CT 2025-09-26"
"C98183","C74456",,"Anatomical Location","FEMORAL LYMPH NODE",,"A lymph node located in the upper inner portion of the thigh. (NCI)","Femoral Lymph Node","SEND CT 2025-09-26"
"C61563","C74456",,"Anatomical Location","FEMORAL NECK","Femoral Neck","The short, constricted portion of the thigh bone between the femur head and the trochanter. (NCI)","Femoral Neck","SEND CT 2025-09-26"
"C12716","C74456",,"Anatomical Location","FEMORAL VEIN",,"A vein of the thigh; in general it arises from the popliteal vein and drains into the external iliac vein.","Femoral Vein","SEND CT 2025-09-26"
"C116167","C74456",,"Anatomical Location","FEMORO-POPLITEAL PERIPHERAL ARTERY",,"The segment of the blood vessels that includes the popliteal artery and its origin from the femoral artery.","Femoropopliteal Artery Segment","SEND CT 2025-09-26"
"C96209","C74456",,"Anatomical Location","FEMUR SHAFT",,"The cylindrical body of the femur. (NCI)","Femoral Shaft","SEND CT 2025-09-26"
"C12717","C74456",,"Anatomical Location","FEMUR","Bone, Femoral","The bone positioned between the pelvis and the femorotibial joint.","Femur","SEND CT 2025-09-26"
"C120670","C74456",,"Anatomical Location","FIBULA SHAFT",,"The elongated bony body of the fibula.","Fibular Shaft","SEND CT 2025-09-26"
"C12718","C74456",,"Anatomical Location","FIBULA",,"The long bone that is lateral to the tibia.","Fibula","SEND CT 2025-09-26"
"C154772","C74456",,"Anatomical Location","FIBULAR VEIN",,"A vein that arises from the plantar veins of the foot, accompanies the peroneal artery, and travels up the back of the leg to join the anterior and posterior tibial veins in forming the popliteal vein on the posterior surface of the knee.","Fibular Vein","SEND CT 2025-09-26"
"C163516","C74456",,"Anatomical Location","FINGER EXTENSOR MUSCLES",,"A group of six muscles in the upper extremity, the abductor pollicis longus, extensor pollicis brevis, extensor pollicis longus, extensor indicis, extensor digitorum, and extensor digiti minimi muscles; primary function is to straighten the fingers to open the hand.","Finger Extensors","SEND CT 2025-09-26"
"C161384","C74456",,"Anatomical Location","FINGER EXTENSOR TENDONS",,"The tendons located on the dorsal side of the fingers that connect muscles of the forearm and hand to bones in the fingers, enabling extension of the fingers. (NCI)","Finger Extensor Tendons","SEND CT 2025-09-26"
"C163517","C74456",,"Anatomical Location","FINGER FLEXOR MUSCLES",,"A group of three muscles in the upper extremity, the flexor digitorum superficialis, flexor digitorum profundus, and flexor pollicis longus muscles; primary function is to bend the fingers.","Finger Flexors","SEND CT 2025-09-26"
"C161383","C74456",,"Anatomical Location","FINGER FLEXOR TENDONS",,"The tendons located on the palm side of the fingers that connect the flexor muscles of the forearm and hand to bones in the fingers, enabling flexion towards the palm. (NCI)","Finger Flexor Tendons","SEND CT 2025-09-26"
"C32608","C74456",,"Anatomical Location","FINGER","Finger","Any of the digits of the hand. (NCI)","Finger","SEND CT 2025-09-26"
"C32609","C74456",,"Anatomical Location","FINGERNAIL","Fingernail","The nail at the end of a finger. (NCI)","Fingernail","SEND CT 2025-09-26"
"C187834","C74456",,"Anatomical Location","FINGERTIP",,"The most distal end of the finger, beyond the nail bed.","Fingertip","SEND CT 2025-09-26"
"C102297","C74456",,"Anatomical Location","FIRST DIAGONAL BRANCH ARTERY","1ST DIAG; FIRST DIAGONAL BRANCH ARTERY SEGMENT","The first artery arising from the left anterior descending (LAD) artery that supplies the anterolateral wall, when counted from proximal to distal.","First Diagonal Branch Artery","SEND CT 2025-09-26"
"C139197","C74456",,"Anatomical Location","FIRST DORSAL INTEROSSEOUS MUSCLE OF THE FOOT",,"A dorsal interosseous muscle of the foot that originates on the lateral side of the first metatarsal and the medial side of the second metatarsal, and inserts into the medial side of the base of the proximal phalanx of the second toe.","First Dorsal Interosseous Muscle of the Foot","SEND CT 2025-09-26"
"C139198","C74456",,"Anatomical Location","FIRST DORSAL INTEROSSEOUS MUSCLE OF THE HAND",,"A dorsal interosseous muscle of the hand that originates on the proximal half of the lateral border of the index metacarpal and the full length of the medial border of the thumb metacarpal, and inserts into the lateral side of the index finger.","First Dorsal Interosseous Muscle of the Hand","SEND CT 2025-09-26"
"C102298","C74456",,"Anatomical Location","FIRST LEFT POSTEROLATERAL BRANCH ARTERY","1ST LPL; FIRST LEFT POSTEROLATERAL BRANCH ARTERY SEGMENT","In an individual with a left-dominant heart, this is the first branch that arises from the circumflex artery atrioventricular groove continuation when counted from proximal to distal. It supplies the posterolateral wall.","First Left Posterolateral Branch Artery","SEND CT 2025-09-26"
"C102299","C74456",,"Anatomical Location","FIRST OBTUSE MARGINAL BRANCH ARTERY","1ST OM; FIRST OBTUSE MARGINAL BRANCH ARTERY SEGMENT","The first artery arising from the left circumflex artery that supplies the lateral wall, when counted from proximal to distal.","First Obtuse Marginal Branch Artery","SEND CT 2025-09-26"
"C102300","C74456",,"Anatomical Location","FIRST RIGHT POSTEROLATERAL ARTERY","1ST RPL; FIRST RIGHT POSTEROLATERAL ARTERY SEGMENT","In an individual with a right-dominant heart, this is the first branch that arises from the right coronary artery distal to the right posterior descending artery, when counted from proximal to distal.","First Right Posterolateral Artery","SEND CT 2025-09-26"
"C93028","C74456",,"Anatomical Location","FLANK",,"The region on either side of the body that extends from the last rib to the hip.","Flank","SEND CT 2025-09-26"
"C53155","C74456",,"Anatomical Location","FLEXOR CARPI RADIALIS MUSCLE",,"A muscle in the forearm running from the head of the humerus to the radial side of the wrist that flexes and radially abducts the hand. (NCI)","Flexor Carpi Radialis","SEND CT 2025-09-26"
"C53156","C74456",,"Anatomical Location","FLEXOR CARPI ULNARIS MUSCLE",,"A muscle in the forearm running from the humeral and ulnar heads to the ulnar side of the wrist that flexes and abducts the hand toward the ulna. (NCI)","Flexor Carpi Ulnaris","SEND CT 2025-09-26"
"C163518","C74456",,"Anatomical Location","FLEXOR DIGITORUM BREVIS MUSCLE",,"A muscle in the foot, in general extending from the medial process of the posterior calcaneal tuberosity to the borders of the middle phalanx of the four lateral toes; primary function is flexion of the four lateral toes and support of the medial and lateral longitudinal arches.","Flexor Digitorum Brevis Muscle","SEND CT 2025-09-26"
"C52921","C74456",,"Anatomical Location","FLEXOR DIGITORUM LONGUS MUSCLE",,"A muscle in the leg/hindlimb and foot/hindpaw, in general extending from the tibia to the phalanges; primary function is to flex the digits.","Flexor Digitorum Longus","SEND CT 2025-09-26"
"C52923","C74456",,"Anatomical Location","FLEXOR DIGITORUM PROFUNDUS MUSCLE",,"A muscle in the forearm beginning at the head of the ulna and ending with four tendons projecting to the second, third, fourth, and fifth fingers which flexes the midcarpal, metacarpophalangeal and interphalangeal joints. (NCI)","Flexor Digitorum Profundus","SEND CT 2025-09-26"
"C150850","C74456",,"Anatomical Location","FLEXOR DIGITORUM SUPERFICIALIS MUSCLE",,"A muscle in the forearm, in general extending from the humeroulnar and radial heads of the forearm to the middle phalanges of the second through fifth digits of the hand; primary function is flexion of the fingers at the proximal interphalangeal joints.","Flexor Digitorum Superficialis Muscle","SEND CT 2025-09-26"
"C165998","C74456",,"Anatomical Location","FLEXOR HALLUCIS BREVIS MUSCLE",,"A muscle in the foot, in general extending from the plantar surface of the cuboid bone to the medial and lateral sesamoid bones at the base of the proximal phalanx of the big toe; primary function is flexion of the big toe and the support of the medial longitudinal arch.","Flexor Hallucis Brevis Muscle","SEND CT 2025-09-26"
"C52925","C74456",,"Anatomical Location","FLEXOR HALLUCIS LONGUS MUSCLE",,"A muscle in the leg and foot, in general extending from the fibula to the distal surface of the big toe phalanx; primary function is to flex the big toe.","Flexor Hallucis Longus","SEND CT 2025-09-26"
"C186116","C74456",,"Anatomical Location","FLEXOR POLLICIS BREVIS MUSCLE",,"A muscle of the hand, whose superficial head extends from the flexor retinaculum and tubercle of the trapezium bone and deep head that extends from the trapezoid and capitate bones, extending to the lateral side of the base of the proximal phalanx of the thumb; primary function is to flex the thumb at the metacarpophalangeal joint.","Flexor Pollicis Brevis Muscle","SEND CT 2025-09-26"
"C150851","C74456",,"Anatomical Location","FLEXOR POLLICIS LONGUS MUSCLE",,"A muscle in the forearm, in general extending from the anterior surface of the radius and interosseous membrane to the palmar aspect of the base of the distal phalanx of the thumb; primary function is flexion of the thumb.","Flexor Pollicis Longus Muscle","SEND CT 2025-09-26"
"C54187","C74456",,"Anatomical Location","FLOOR OF MOUTH",,"The area of the mouth under the ventral surface of the tongue.","Floor of Mouth","SEND CT 2025-09-26"
"C32621","C74456",,"Anatomical Location","FONTANELLE","Fontanel; Soft Spot","The membrane-covered space between the skull bones of a neonate or fetus where ossification is not complete and sutures are not fully formed.","Fontanelle","SEND CT 2025-09-26"
"C52839","C74456",,"Anatomical Location","FOOT DIGIT 1","Big Toe","The largest and most medial toe of the foot. (NCI)","Foot Digit 1","SEND CT 2025-09-26"
"C52840","C74456",,"Anatomical Location","FOOT DIGIT 2","Index Toe","The second toe from the medial side of the foot. (NCI)","Foot Digit 2","SEND CT 2025-09-26"
"C52841","C74456",,"Anatomical Location","FOOT DIGIT 3","Middle Toe","The middle or third toe from the medial side of the foot. (NCI)","Foot Digit 3","SEND CT 2025-09-26"
"C52842","C74456",,"Anatomical Location","FOOT DIGIT 4","Fourth Toe","The fourth toe from the medial side of the foot. (NCI)","Foot Digit 4","SEND CT 2025-09-26"
"C52843","C74456",,"Anatomical Location","FOOT DIGIT 5","Little Toe","The smallest and most lateral toe of the foot. (NCI)","Foot Digit 5","SEND CT 2025-09-26"
"C52772","C74456",,"Anatomical Location","FOOT PHALANX","Foot Phalanx","A bone of the foot. (NCI)","Foot Phalanx","SEND CT 2025-09-26"
"C32622","C74456",,"Anatomical Location","FOOT",,"The entire structure distal to the ankle joint/tarsus, which includes the metatarsus and digit(s).","Foot","SEND CT 2025-09-26"
"C186117","C74456",,"Anatomical Location","FOREARM PRONATOR MUSCLES",,"A group of muscles in the ankle, the brachioradialis, pronator teres, pronator quadratus, and flexor carpi radialis muscles; primary function is to rotate the forearm so that the palm faces downward when the arm is extended at a right angle to the body.","Forearm Pronator Muscles","SEND CT 2025-09-26"
"C32628","C74456",,"Anatomical Location","FOREARM","Forearm","The structure on the upper limb, between the elbow and the wrist. (NCI)","Forearm","SEND CT 2025-09-26"
"C40185","C74456",,"Anatomical Location","FOREBRAIN",,"The largest part of the brain composed of the cerebral hemispheres, thalamus, hypothalamus, and the limbic system. (NCI)","Forebrain","SEND CT 2025-09-26"
"C89803","C74456",,"Anatomical Location","FOREHEAD","Forehead","The part of the face between the eyebrows and the normal hairline.","Forehead","SEND CT 2025-09-26"
"C176321","C74456",,"Anatomical Location","FORELIMB",,"The anterior, front or upper limb of an animal.","Fore Limb","SEND CT 2025-09-26"
"C186118","C74456",,"Anatomical Location","FOREPAW PHALANX","Forepaw Phalange","Any of the bones that make up the digits of the forepaw.","Forepaw Phalanx","SEND CT 2025-09-26"
"C33049","C74456",,"Anatomical Location","FORESKIN","Male Prepuce","A fold of skin covering the tip of the penis.","Male Prepuce","SEND CT 2025-09-26"
"C26463","C74456",,"Anatomical Location","FOVEA","Fovea Centralis","Area consisting of a small depression in the retina containing only cones and where vision is most acute.","Fovea Centralis","SEND CT 2025-09-26"
"C32635","C74456",,"Anatomical Location","FRONTAL BONE",,"A bone of the skull forming the front part of the skull, root of the nose, and the roof of both orbits.","Frontal Bone","SEND CT 2025-09-26"
"C177766","C74456",,"Anatomical Location","FRONTAL CORTEX",,"The outermost layer of the frontal lobe of the brain, made up of gray matter.","Frontal Lobe Cortex","SEND CT 2025-09-26"
"C12352","C74456",,"Anatomical Location","FRONTAL LOBE","Frontal Lobe","The part of the brain located anterior to the parietal lobes at the front of each cerebral hemisphere. (NCI)","Frontal Lobe","SEND CT 2025-09-26"
"C12277","C74456",,"Anatomical Location","FRONTAL SINUS","Frontal Sinus","The paired, mucosal lined air spaces located above the orbit and communicating with the nasal passages. (NCI)","Frontal Sinus","SEND CT 2025-09-26"
"C186119","C74456",,"Anatomical Location","FRONTALIS MUSCLE",,"A muscle of the forehead, in general extending from the galea aponeurotica at the top of the skull to the skin around the eyebrows and the top of the nose; primary function is to raise the eyebrows.","Frontalis Muscle","SEND CT 2025-09-26"
"C135172","C74456",,"Anatomical Location","FUNDUS OF THE EYE",,"The portion of the interior of the eye that includes the sensory retina, the optic disc, and the macula.","Eye Fundus","SEND CT 2025-09-26"
"C12257","C74456",,"Anatomical Location","FUNDUS OF THE STOMACH",,"The blind sac region of the glandular stomach.","Fundus of the Stomach","SEND CT 2025-09-26"
"C12315","C74456",,"Anatomical Location","FUNDUS UTERI",,"The upper, rounded portion of the uterus that is opposite from the cervix.","Fundus Uteri","SEND CT 2025-09-26"
"C12377","C74456",,"Anatomical Location","GALLBLADDER",,"A sac-like organ located adjacent to the liver that stores and concentrates bile produced by the liver.","Gallbladder","SEND CT 2025-09-26"
"C12719","C74456",,"Anatomical Location","GANGLION","Ganglia; Ganglion; Neural Ganglion","A cluster of nervous tissue principally composed of neuronal cell bodies external to the central nervous system (CNS). (NCI)","Ganglion","SEND CT 2025-09-26"
"C12256","C74456",,"Anatomical Location","GASTRIC CARDIA",,"The region of the stomach adjacent to the esophogastric junction.","Gastric Cardia","SEND CT 2025-09-26"
"C154773","C74456",,"Anatomical Location","GASTRIC CURVATURE LYMPH NODE",,"Lymph node(s) located between the two layers of the greater omentum, either superiorly along the cardiac half of the lesser curvature of the stomach or inferiorly along the pyloric half of the greater curvature of the stomach.","Gastric Curvature Lymph Node","SEND CT 2025-09-26"
"C32656","C74456",,"Anatomical Location","GASTRIC MUCOSA","Stomach Mucosa","The mucosal membranes that line the inner surface of the stomach.","Gastric Mucosa","SEND CT 2025-09-26"
"C32666","C74456",,"Anatomical Location","GASTROCNEMIUS MUSCLE",,"A bipennate muscle extending from the femoral condyles to the calcaneus; primary function is the extension of the tarsal joint and flexion of the femorotibial joint.","Gastrocnemius Muscle","SEND CT 2025-09-26"
"C163519","C74456",,"Anatomical Location","GASTROCNEMIUS MUSCLE, LATERAL HEAD",,"One of two heads of the gastrocnemius muscle, in general originating from the lateral femoral condyle.","Lateral Head of Gastrocnemius Muscle","SEND CT 2025-09-26"
"C163520","C74456",,"Anatomical Location","GASTROCNEMIUS MUSCLE, MEDIAL HEAD",,"One of two heads of the gastrocnemius muscle, in general originating from the medial femoral condyle.","Medial Head of Gastrocnemius Muscle","SEND CT 2025-09-26"
"C32668","C74456",,"Anatomical Location","GASTROESOPHAGEAL JUNCTION","Gastroesophageal Junction","The anatomical location where the esophagus joins to the stomach. (NCI)","Gastroesophageal Junction","SEND CT 2025-09-26"
"C12378","C74456",,"Anatomical Location","GASTROINTESTINAL SYSTEM","Gastrointestinal System","The system that includes the esophagus, stomach, small and large intestine, anus, liver, biliary tract, and pancreas. (NCI)","Digestive System","SEND CT 2025-09-26"
"C34082","C74456",,"Anatomical Location","GASTROINTESTINAL TRACT","Gastrointestinal Tract","The upper gastrointestinal (GI) tract is comprised of mouth, pharynx, esophagus and stomach while the lower GI tract consists of intestines and anus. The primary function of the GI tract is to ingest, digest, absorb and ultimately excrete food stuff. (NCI)","Gastrointestinal Tract","SEND CT 2025-09-26"
"C33010","C74456",,"Anatomical Location","GASTROINTESTINAL TRACT, LOWER","Lower Gastrointestinal Tract","The lower part of the gastrointestinal tract that includes the jejunum and ileum of the small intestine and the large intestine. (NCI)","Lower Gastrointestinal Tract","SEND CT 2025-09-26"
"C176241","C74456",,"Anatomical Location","GASTROINTESTINAL TRACT, LOWER, WALL",,"The portion of the gastrointestinal tract wall that surrounds the cavities of the duodenum, jejunum, ileum, colon, rectum, and anus.","Lower Gastrointestinal Tract Wall","SEND CT 2025-09-26"
"C33837","C74456",,"Anatomical Location","GASTROINTESTINAL TRACT, UPPER","Upper Gastrointestinal Tract","The upper part of the gastrointestinal tract that includes the esophagus, stomach, and duodenum. (NCI)","Upper Gastrointestinal Tract","SEND CT 2025-09-26"
"C176314","C74456",,"Anatomical Location","GASTROINTESTINAL TRACT, UPPER, WALL",,"The portion of the gastrointestinal tract wall that surrounds the cavities of the esophagus and stomach. The proximal duodenum is also sometimes considered part of the upper gastrointestinal tract.","Upper Gastrointestinal Tract Wall","SEND CT 2025-09-26"
"C176233","C74456",,"Anatomical Location","GASTROINTESTINAL TRACT, WALL",,"The multiple layers of specialized tissue that surround the cavity of the gastrointestinal tract, including the mucosa, submucosa, muscular layers, and serosa.","Gastrointestinal Tract Wall","SEND CT 2025-09-26"
"C52928","C74456",,"Anatomical Location","GENIOGLOSSUS MUSCLE",,"A muscle of the tongue, in general extending from the mental spine of the mandible to the hyoid bone at the bottom of the tongue; primary function is to depress and protrude the tongue.","Genioglossus","SEND CT 2025-09-26"
"C176324","C74456",,"Anatomical Location","GENITAL TUBERCLE",,"A protruding body of tissue that forms in the ventral caudal region during embryonic development.","Genital Tubercle","SEND CT 2025-09-26"
"C25177","C74456",,"Anatomical Location","GENITALIA",,"The external sex organs. (NCI)","Genitalia","SEND CT 2025-09-26"
"C12810","C74456",,"Anatomical Location","GENITOURINARY SYSTEM",,"The body system that includes all organs involved in reproduction and in the formation and voidance of urine.","Genitourinary System","SEND CT 2025-09-26"
"C32677","C74456",,"Anatomical Location","GINGIVA","Gum","The soft tissue surrounding the neck of individual teeth as well as covering the alveolar bone. The tissue is fibrous and continuous with the periodontal ligament and mucosal covering. (NCI)","Gingiva","SEND CT 2025-09-26"
"C139199","C74456",,"Anatomical Location","GINGIVAL MUCOSA",,"The portion of the oral mucosa that surrounds the cervical aspect of teeth and the alveolar process of the jaw.","Gingival Mucosa","SEND CT 2025-09-26"
"C32682","C74456",,"Anatomical Location","GLENOID FOSSA","Glenoid Fossa","The trough in the head of the scapula that receives the head of the humerus to form the shoulder joint. (NCI)","Glenoid Fossa","SEND CT 2025-09-26"
"C12449","C74456",,"Anatomical Location","GLOBUS PALLIDUS",,"Paired nuclei at the base of the forebrain that, along with the putamen, form the lentiform nucleus of the basal ganglia.","Globus Pallidus","SEND CT 2025-09-26"
"C13250","C74456",,"Anatomical Location","GLOMERULUS",,"A cluster of convoluted capillaries beginning at each nephric tubule in the kidney and held together by connective tissue.","Glomerulus","SEND CT 2025-09-26"
"C12723","C74456",,"Anatomical Location","GLOSSOPHARYNGEAL NERVE",,"The ninth cranial nerve.","Glossopharyngeal Nerve","SEND CT 2025-09-26"
"C12724","C74456",,"Anatomical Location","GLOTTIS","Glottis","The space in which the vocal cords are located. (NCI)","Glottis","SEND CT 2025-09-26"
"C128630","C74456",,"Anatomical Location","GLOTTIS, ANTERIOR COMMISSURE","Laryngeal Anterior Commissure","The anterior surface of the glottic opening, located within the larynx, that constitutes the junction of the conus elasticus and the thyroepiglottic, vestibular, and vocal ligaments.","Laryngeal Anterior Commissure","SEND CT 2025-09-26"
"C164282","C74456",,"Anatomical Location","GLOTTIS, POSTERIOR COMMISSURE","Laryngeal Posterior Commissure","The posterior surface of the glottic opening at the level of the vocal cords.","Laryngeal Posterior Commissure","SEND CT 2025-09-26"
"C78205","C74456",,"Anatomical Location","GLUTEAL MUSCLE",,"A group of three muscles (gluteus maximus, gluteus medius, gluteus minimus) extending from the ilium and sacrum to the femur; primary function is extension and abduction of the hip joint.","Gluteal Muscle","SEND CT 2025-09-26"
"C52560","C74456",,"Anatomical Location","GLUTEUS MAXIMUS",,"The outermost and largest muscle of the buttocks. (NCI)","Gluteus Maximus","SEND CT 2025-09-26"
"C52933","C74456",,"Anatomical Location","GLUTEUS MEDIUS",,"A muscle of the hip and buttock, in general extending from the gluteal surface of the ilium to the lateral aspect of the greater trochanter of the femur; primary function is to abduct and rotate the thigh.","Gluteus Medius","SEND CT 2025-09-26"
"C12725","C74456",,"Anatomical Location","GONAD",,"A reproductive organ that produces gametes.","Gonad","SEND CT 2025-09-26"
"C52935","C74456",,"Anatomical Location","GRACILIS MUSCLE",,"A muscle in the thigh, in general extending from the lower half of the symphysis pubis and the upper half of the pubic arch to the upper part of the medial surface of the tibia; primary function is to adduct the thigh, rotate the leg/hindlimb medially and flex the knee.","Gracilis","SEND CT 2025-09-26"
"C33004","C74456",,"Anatomical Location","GREAT SAPHENOUS VEIN","Long Saphenous Vein","A long superficial vein originating from the dorsal vein at the big toe and the dorsal venous arch of the foot and extending up the inner leg to empty into the femoral artery in the groin area.","Long Saphenous Vein","SEND CT 2025-09-26"
"C32698","C74456",,"Anatomical Location","GREAT TROCHANTER","Great Trochanter","A large, irregular, quadrilateral area of bone found at the neck of the femur. (NCI)","Great Trochanter","SEND CT 2025-09-26"
"C102955","C74456",,"Anatomical Location","GREAT VESSELS",,"Any of the major arteries or veins attached to the cardiac atria or ventricles.","Great Blood Vessel","SEND CT 2025-09-26"
"C12262","C74456",,"Anatomical Location","GREATER CURVATURE OF THE STOMACH","Greater Curvature of the Stomach","The lateral and inferior border of the stomach. Attached to it is the greater omentum. (NCI)","Greater Curvature of the Stomach","SEND CT 2025-09-26"
"C12936","C74456",,"Anatomical Location","GUT-ASSOCIATED LYMPHOID TISSUE","GALT","Lymphoid tissue located in the mucosa of the digestive tract.","Gut-Associated Lymphoid Tissue","SEND CT 2025-09-26"
"C32706","C74456",,"Anatomical Location","HAIR BULB",,"The lower segment of the hair that circles the dermal papilla and the hair matrix. (NCI)","Hair Bulb","SEND CT 2025-09-26"
"C13317","C74456",,"Anatomical Location","HAIR FOLLICLE",,"A tube-like invagination of the epidermis from which the hair shaft develops and into which the sebaceous glands open; the follicle is lined by a cellular inner and outer root sheath of epidermal origin and is invested with a fibrous sheath derived from the dermis. (NCI)","Hair Follicle","SEND CT 2025-09-26"
"C32711","C74456",,"Anatomical Location","HAIR ROOT",,"The portion of the hair that is enclosed within the hair follicle. (NCI)","Hair Root","SEND CT 2025-09-26"
"C33543","C74456",,"Anatomical Location","HAIR SHAFT","Shaft of the Hair","The segment of the hair that projects above the skin surface. (NCI)","Shaft of the Hair","SEND CT 2025-09-26"
"C32705","C74456",,"Anatomical Location","HAIR","Hair","The filamentous outgrowth of the epidermis. (NCI)","Hair","SEND CT 2025-09-26"
"C12860","C74456",,"Anatomical Location","HAMATE BONE","Hamate Bone","The medial bone in the distal row of carpal bones. (NCI)","Hamate Bone","SEND CT 2025-09-26"
"C53042","C74456",,"Anatomical Location","HAMSTRING MUSCLE",,"A group of three muscles in the lower extremity, the biceps femoris, semimembranosus muscle and semitendinosus muscle; primary function is to extend the hip when the trunk is fixed and flex the knee, and medially rotate the lower leg when the knee is bent.","Hamstring","SEND CT 2025-09-26"
"C178000","C74456",,"Anatomical Location","HAND DIGIT 1 ARTERY","Thumb Artery","Any of the arteries that supply blood to the thumb; either the ulnopalmar, radiopalmar, ulnodorsal, or radiodorsal digital artery to the thumb, or the princeps pollicis artery.","Hand Digit 1 Artery","SEND CT 2025-09-26"
"C52834","C74456",,"Anatomical Location","HAND DIGIT 1","Thumb","The thick and short hand digit which is next to the index finger in humans. (NCI)","Hand Digit 1","SEND CT 2025-09-26"
"C177996","C74456",,"Anatomical Location","HAND DIGIT 2 ARTERY","Index Finger Artery","Any of the arteries that supply blood to the index finger, either the radial artery of the index finger or the ulnar proper digital artery.","Hand Digit 2 Artery","SEND CT 2025-09-26"
"C52835","C74456",,"Anatomical Location","HAND DIGIT 2","Index Finger","The second finger from the radial side of the hand, next to the thumb. (NCI)","Hand Digit 2","SEND CT 2025-09-26"
"C177998","C74456",,"Anatomical Location","HAND DIGIT 3 ARTERY","Middle Finger Artery","Any of the arteries that supply blood to the middle finger, either the ulnar or radial proper digital artery.","Hand Digit 3 Artery","SEND CT 2025-09-26"
"C52836","C74456",,"Anatomical Location","HAND DIGIT 3","Middle Finger","The middle or third finger from the radial side of the hand. (NCI)","Hand Digit 3","SEND CT 2025-09-26"
"C177999","C74456",,"Anatomical Location","HAND DIGIT 4 ARTERY","Ring Finger Artery","Any of the arteries that supply blood to the ring finger, either the ulnar or radial proper digital artery.","Hand Digit 4 Artery","SEND CT 2025-09-26"
"C52837","C74456",,"Anatomical Location","HAND DIGIT 4","Ring Finger","The fourth finger from the radial side of the hand. (NCI)","Hand Digit 4","SEND CT 2025-09-26"
"C177997","C74456",,"Anatomical Location","HAND DIGIT 5 ARTERY","Little Finger Artery","Any of the arteries that supply blood to the little finger, either the ulnar or radial proper digital artery.","Hand Digit 5 Artery","SEND CT 2025-09-26"
"C52838","C74456",,"Anatomical Location","HAND DIGIT 5","Little Finger","The fifth and smallest finger from the radial side of the hand. (NCI)","Hand Digit 5","SEND CT 2025-09-26"
"C52771","C74456",,"Anatomical Location","HAND PHALANX","Hand Phalanx","A bone of the hand. (NCI)","Hand Phalanx","SEND CT 2025-09-26"
"C32712","C74456",,"Anatomical Location","HAND","Hand","The distal portion of the upper extremity. It consists of the carpus, metacarpus, and digits. (NCI)","Hand","SEND CT 2025-09-26"
"C12230","C74456",,"Anatomical Location","HARD PALATE",,"The part of the roof of the mouth supported by bone.","Hard Palate","SEND CT 2025-09-26"
"C12418","C74456",,"Anatomical Location","HEAD AND NECK",,"The area of the body comprising the skull, facial bones and the cervical vertebrae, sinuses, orbits, salivary glands, oral cavity, oropharynx, larynx, thyroid, facial and neck musculature, soft tissue and lymph nodes draining these areas.","Head and Neck","SEND CT 2025-09-26"
"C32719","C74456",,"Anatomical Location","HEAD OF THE FIBULA","Fibular Head","The upper rounded part of the fibula that articulates with the tibia.","Head of the Fibula","SEND CT 2025-09-26"
"C32720","C74456",,"Anatomical Location","HEAD OF THE HUMERUS","Head of the Humerus","The upper rounded part of the humerus that fits into the glenoid cavity of the scapula. (NCI)","Head of the Humerus","SEND CT 2025-09-26"
"C12419","C74456",,"Anatomical Location","HEAD",,"The portion of the body containing the mouth, the brain and multiple sensory organs.","Head","SEND CT 2025-09-26"
"C12727","C74456",,"Anatomical Location","HEART",,"A hollow muscular organ which receives the blood from the veins and pumps it into the arteries.","Heart","SEND CT 2025-09-26"
"C32126","C74456",,"Anatomical Location","HEART, APEX","Apex of the Heart","The most outer superficial part of the heart which is situated on the left 5th intercostal space. (NCI)","Apex of the Heart","SEND CT 2025-09-26"
"C12728","C74456",,"Anatomical Location","HEART, ATRIUM","Cardiac Atrium","The smaller chamber(s) of the heart that receives blood from the peripheral circulation and/or the lungs.","Cardiac Atrium","SEND CT 2025-09-26"
"C48589","C74456",,"Anatomical Location","HEART, BASE","Base of the Heart","The superior portion of the heart located opposite to the apical portion. It is formed mainly by the left atrium. (NCI)","Base of the Heart","SEND CT 2025-09-26"
"C34241","C74456",,"Anatomical Location","HEART, FORAMEN OVALE",,"An opening between the right and left atria in the fetal heart that allows blood to bypass the lungs and flow directly into the systemic circulation.","Foramen Ovale of the Fetal Heart","SEND CT 2025-09-26"
"C127643","C74456",,"Anatomical Location","HEART, LEFT ATRIAL APPENDAGE",,"A small muscular pouch located in the wall of the left atrium.","Left Atrial Appendage","SEND CT 2025-09-26"
"C12869","C74456",,"Anatomical Location","HEART, LEFT ATRIUM",,"The smaller chamber on the left side of the heart, which receives oxygenated blood from the pulmonary veins and pumps it through the left atrioventricular valve into the left ventricle.","Left Atrium","SEND CT 2025-09-26"
"C12871","C74456",,"Anatomical Location","HEART, LEFT VENTRICLE","Left Ventricle","The larger chamber on the left side of the heart, which receives oxygenated blood from the left atrium and pumps it through the aortic valve into the aorta.","Left Ventricle","SEND CT 2025-09-26"
"C221579","C74456",,"Anatomical Location","HEART, LEFT VENTRICLE, APEX SHORT AXIS",,"The apical short axis slice of the left ventricular myocardium. (Cerqueira MD, Weissman NJ, Dilsizian V, Jacobs AK, Kaul S, Laskey WK, Pennell DJ, Rumberger JA, Ryan T, Verani MS; American Heart Association Writing Group on Myocardial Segmentation and Registration for Cardiac Imaging. Standardized myocardial segmentation and nomenclature for tomographic imaging of the heart. A statement for healthcare professionals from the Cardiac Imaging Committee of the Council on Clinical Cardiology of the American Heart Association. Circulation. 2002 Jan 29;105(4):539-42.)","Left Ventricle Apex Short Axis","SEND CT 2025-09-26"
"C221577","C74456",,"Anatomical Location","HEART, LEFT VENTRICLE, BASE SHORT AXIS",,"The basal short axis slice of the left ventricular myocardium. (Cerqueira MD, Weissman NJ, Dilsizian V, Jacobs AK, Kaul S, Laskey WK, Pennell DJ, Rumberger JA, Ryan T, Verani MS; American Heart Association Writing Group on Myocardial Segmentation and Registration for Cardiac Imaging. Standardized myocardial segmentation and nomenclature for tomographic imaging of the heart. A statement for healthcare professionals from the Cardiac Imaging Committee of the Council on Clinical Cardiology of the American Heart Association. Circulation. 2002 Jan 29;105(4):539-42.)","Left Ventricle Base Short Axis","SEND CT 2025-09-26"
"C221578","C74456",,"Anatomical Location","HEART, LEFT VENTRICLE, MID-LEVEL SHORT AXIS",,"The mid-cavity short axis slice of the left ventricular myocardium. (Cerqueira MD, Weissman NJ, Dilsizian V, Jacobs AK, Kaul S, Laskey WK, Pennell DJ, Rumberger JA, Ryan T, Verani MS; American Heart Association Writing Group on Myocardial Segmentation and Registration for Cardiac Imaging. Standardized myocardial segmentation and nomenclature for tomographic imaging of the heart. A statement for healthcare professionals from the Cardiac Imaging Committee of the Council on Clinical Cardiology of the American Heart Association. Circulation. 2002 Jan 29;105(4):539-42.)","Left Ventricle Mid-level Short Axis","SEND CT 2025-09-26"
"C127644","C74456",,"Anatomical Location","HEART, LEFT VENTRICULAR OUTFLOW TRACT",,"The structure through which blood flows from the left ventricle into the aortic root.","Left Ventricular Outflow Tract","SEND CT 2025-09-26"
"C127645","C74456",,"Anatomical Location","HEART, LEFT VENTRICULAR WALL",,"The wall of the left ventricle, comprising anterior, inferior, lateral, apical, basal wall; and excluding the interventricular septum.","Left Ventricular Wall","SEND CT 2025-09-26"
"C127646","C74456",,"Anatomical Location","HEART, RIGHT ATRIAL APPENDAGE",,"A small muscular pouch located in the wall of the right atrium.","Right Atrial Appendage","SEND CT 2025-09-26"
"C12868","C74456",,"Anatomical Location","HEART, RIGHT ATRIUM",,"The smaller chamber on the right side of the heart, which receives deoxygenated blood from the body and pumps it through the right atrioventricular valve into the right ventricle.","Right Atrium","SEND CT 2025-09-26"
"C12870","C74456",,"Anatomical Location","HEART, RIGHT VENTRICLE","Right Ventricle","The larger chamber on the right side of the heart, which receives deoxygenated blood from the right atrium and pumps it through the pulmonic valve into the pulmonary arteries.","Right Ventricle","SEND CT 2025-09-26"
"C201433","C74456",,"Anatomical Location","HEART, RIGHT VENTRICLE, BASE",,"The inferior portion of the right ventricle of the heart.","Base of the Right Ventricle","SEND CT 2025-09-26"
"C201434","C74456",,"Anatomical Location","HEART, RIGHT VENTRICLE, MID-LEVEL",,"The central portion of the right ventricle of the heart.","Mid Level Right Ventricle","SEND CT 2025-09-26"
"C127647","C74456",,"Anatomical Location","HEART, RIGHT VENTRICULAR FREE WALL",,"The lateral segment of the right ventricular wall, excluding the anterior and inferior right ventricular wall.","Right Ventricular Free Wall","SEND CT 2025-09-26"
"C127648","C74456",,"Anatomical Location","HEART, RIGHT VENTRICULAR OUTFLOW TRACT",,"The structure through which blood flows from the right ventricle into the pulmonary trunk.","Right Ventricular Outflow Tract","SEND CT 2025-09-26"
"C127649","C74456",,"Anatomical Location","HEART, RIGHT VENTRICULAR WALL",,"The wall of the right ventricle, comprising anterior, inferior, and lateral walls; and excluding the interventricular septum.","Right Ventricular Wall","SEND CT 2025-09-26"
"C49485","C74456",,"Anatomical Location","HEART, SEPTUM","Cardiac Septum","The tissue in the heart that separates the two atria (atrial septum) and the two ventricles (ventricular septum). (NCI)","Heart Septum","SEND CT 2025-09-26"
"C12730","C74456",,"Anatomical Location","HEART, VENTRICLE","Cardiac Ventricle","The larger chamber(s) of the heart that receives blood from an atrium and pushes it out of the heart into the peripheral circulation and/or the lungs.","Cardiac Ventricle","SEND CT 2025-09-26"
"C186120","C74456",,"Anatomical Location","HEART, VENTRICULAR CHAMBER",,"The anatomical space of a cardiac ventricle.","Heart, Ventricular Chamber","SEND CT 2025-09-26"
"C119295","C74456",,"Anatomical Location","HEART, VENTRICULAR WALL",,"The tissue layers that form the cardiac ventricle. They include myocardium, endocardium, and pericardium. (NCI)","Ventricular Wall of the Heart","SEND CT 2025-09-26"
"C161381","C74456",,"Anatomical Location","HEEL OF THE FOOT",,"The rounded back part of the foot below the ankle and behind the arch. (NCI)","Heel of the Foot","SEND CT 2025-09-26"
"C161382","C74456",,"Anatomical Location","HEEL OF THE HAND","Heel of the Palm","The raised part of the palm of the hand that is adjacent to the wrist. (NCI)","Heel of the Hand","SEND CT 2025-09-26"
"C32729","C74456",,"Anatomical Location","HEPATIC ARTERY",,"An artery arising from the celiac trunk that supplies the liver and branches to form the cystic, gastro-duodenalis and pyloric arteries.","Common Hepatic Artery","SEND CT 2025-09-26"
"C77640","C74456",,"Anatomical Location","HEPATIC LYMPH NODE",,"Lymph node(s) adjacent to the liver.","Hepatic Lymph Node","SEND CT 2025-09-26"
"C32736","C74456",,"Anatomical Location","HEPATIC VEIN",,"The blood vessels that drain blood from the central veins of the liver into the inferior vena cava.","Hepatic Vein","SEND CT 2025-09-26"
"C43612","C74456",,"Anatomical Location","HEPATOBILIARY SYSTEM",,"The body system that includes the liver, gallbladder, and associated ducts.","Hepatobiliary System","SEND CT 2025-09-26"
"C98187","C74456",,"Anatomical Location","HILAR LYMPH NODE",,"A lymph node located in the hilum of the lung within the mediastinum.","Pulmonary Hilar Lymph Node","SEND CT 2025-09-26"
"C25724","C74456",,"Anatomical Location","HILAR","Hilar","Refers to the area associated with the hilum. (NCI)","Hilar","SEND CT 2025-09-26"
"C77625","C74456",,"Anatomical Location","HINDLIMB",,"The posterior, rear or lower limb of an animal.","Hind Limb","SEND CT 2025-09-26"
"C186121","C74456",,"Anatomical Location","HINDPAW PHALANX","Hindpaw Phalange","Any of the bones that make up the digits of the hindpaw.","Hindpaw Phalanx","SEND CT 2025-09-26"
"C204656","C74456",,"Anatomical Location","HIP ABDUCTOR MUSCLES",,"A group of muscles in the hip, the gluteus medius, gluteus minimus, tensor fasciae latae, piriformis, sartorius, and gluteus maximus muscles; primary function is to abduct the hip.","Hip Abductor Muscles","SEND CT 2025-09-26"
"C204657","C74456",,"Anatomical Location","HIP ADDUCTOR MUSCLES",,"A group of muscles in the hip, the gracilis, obturator externus, adductor brevis, adductor longus and adductor magnus muscles; primary function is to adduct the hip.","Hip Adductor Muscles","SEND CT 2025-09-26"
"C53039","C74456",,"Anatomical Location","HIP ADDUCTORS",,"A group of muscles generally extending from the pubis to the femur; primary function is adduction of the thigh.","Adductor Group of the Leg","SEND CT 2025-09-26"
"C204660","C74456",,"Anatomical Location","HIP EXTENSOR MUSCLES",,"A group of muscles in the hip, the gluteus maximus, adductor magnus, semitendinosus, semimembranosus, and the biceps femoris muscles; primary function is to extend the hip.","Hip Extensor Muscles","SEND CT 2025-09-26"
"C186122","C74456",,"Anatomical Location","HIP FLEXOR MUSCLES",,"A group of muscles in the hip, the psoas major, iliacus, rectus femoris, pectineus, and sartorius; primary function is to move the leg or knee towards the torso and bend at the waist.","Hip Flexor Muscles","SEND CT 2025-09-26"
"C32742","C74456",,"Anatomical Location","HIP JOINT","Coxofemoral Joint; Hip Joint","A ball-and-socket joint between the head of the femur and the acetabulum. (NCI)","Hip Joint","SEND CT 2025-09-26"
"C64193","C74456",,"Anatomical Location","HIP","Hip","The lateral prominence of the pelvis from the waist to the thigh. (NCI)","Hip","SEND CT 2025-09-26"
"C12444","C74456",,"Anatomical Location","HIPPOCAMPUS",,"A curved gray matter structure of the cerebrum that is part of the limbic system.","Hippocampus","SEND CT 2025-09-26"
"C114187","C74456",,"Anatomical Location","HUMERAL EPICONDYLE",,"The bone prominence at the distal end of the humerus to which ligaments and tendons of the joints are attached.","Humeral Epicondyle","SEND CT 2025-09-26"
"C120671","C74456",,"Anatomical Location","HUMERUS SHAFT",,"The cylindrical, elongated bony body of the humerus.","Humeral Shaft","SEND CT 2025-09-26"
"C12731","C74456",,"Anatomical Location","HUMERUS","Bone, Humeral","The bone between the scapulohumeral and humeroulnar joints.","Humerus","SEND CT 2025-09-26"
"C165999","C74456",,"Anatomical Location","HYMENAL RING",,"The outer edge of the hymen or hymenal remnants.","Hymenal Ring","SEND CT 2025-09-26"
"C32752","C74456",,"Anatomical Location","HYOID BONE","Hyoid Bone","A U-shaped bone supporting the tongue. This bone is located at the base of the tongue and is suspended from the tips of the styloid processes of the temporal bones by the stylohyoid ligaments. (NCI)","Hyoid Bone","SEND CT 2025-09-26"
"C12732","C74456",,"Anatomical Location","HYPOGLOSSAL NERVE",,"The twelfth cranial nerve.","Hypoglossal Nerve","SEND CT 2025-09-26"
"C12246","C74456",,"Anatomical Location","HYPOPHARYNX","Hypopharynx","The lower part of the pharynx that connects to the esophagus. (NCI)","Hypopharynx","SEND CT 2025-09-26"
"C12458","C74456",,"Anatomical Location","HYPOTHALAMUS",,"A small region of the brain composed of multiple nuclei and located underneath the thalamus.","Hypothalamus","SEND CT 2025-09-26"
"C178001","C74456",,"Anatomical Location","ILEOCECAL JUNCTION","Ileocecal Region","The segment of the gastrointestinal tract where the terminal ileum transitions to the cecum, and where the ileocecal sphincter regulates the movement of chyme from the small intestine into the large intestine. (NCI)","Ileocecal Junction","SEND CT 2025-09-26"
"C176318","C74456",,"Anatomical Location","ILEUM LYMPH NODE",,"A lymph node located in the ileum.","Ileum Lymph Node","SEND CT 2025-09-26"
"C176316","C74456",,"Anatomical Location","ILEUM WALL",,"The portion of the gastrointestinal tract wall that surrounds the cavity of the ileum and contains collections of lymphatic tissue called Peyer patches, as well as receptors for bile salts and vitamin B12.","Ileum Wall","SEND CT 2025-09-26"
"C12387","C74456",,"Anatomical Location","ILEUM",,"The portion of the small intestine between the jejunum and large intestine.","Ileum","SEND CT 2025-09-26"
"C33757","C74456",,"Anatomical Location","ILEUM, TERMINAL","Terminal Ileum","The most distal section of the ileum that is continuous with the cecum. (NCI)","Terminal Ileum","SEND CT 2025-09-26"
"C103818","C74456",,"Anatomical Location","ILIAC CREST",,"A predominate bone structure which borders the ilium wing stretching from the anterior superior iliac spine to the posterior superior iliac spine.","Iliac Crest","SEND CT 2025-09-26"
"C103454","C74456",,"Anatomical Location","ILIAC FOSSA",,"The large smooth and concave surface of the ilium. (NCI)","Iliac Fossa","SEND CT 2025-09-26"
"C32761","C74456",,"Anatomical Location","ILIAC LYMPH NODE",,"Lymph node(s) adjacent to the iliac vessels in the iliosacral region and cranial to the iliofemoral lymph node.","Iliac Lymph Node","SEND CT 2025-09-26"
"C12734","C74456",,"Anatomical Location","ILIAC VEIN",,"Veins in the pelvis, which include the common, external and internal iliac veins.","Iliac Vein","SEND CT 2025-09-26"
"C32764","C74456",,"Anatomical Location","ILIOPSOAS MUSCLE",,"A combination of two muscles found in the thigh, the iliacus and the psoas major, which have different sites of origin but a common insertion on the lesser trochanter of the femur; primary function is flexion of the hip.","Iliopsoas Muscle","SEND CT 2025-09-26"
"C139207","C74456",,"Anatomical Location","ILIOTIBIAL BAND",,"A dense band of avascular, regular connective tissue. It is formed as the union of the superficial and deep layers of the tensor fascia latae, creating a thick band that extends inferiorly, taking its origins from the iliac crest, the tensor fascia latae, and the gluteus maximus, travelling inferiolaterally along the thigh, and inserting on Gerdy's tubercle on the lateral aspect of the tibia. Functionally, the iliotibial band helps to flex, abduct, and medially rotate the femur at the hip joint, and it also helps to stabilize the knee laterally.","Iliotibial Band","SEND CT 2025-09-26"
"C32765","C74456",,"Anatomical Location","ILIUM","Ilium","The broad, dorsal, upper, and widest of the three principal bones composing either half of the pelvis. (NCI)","Ilium","SEND CT 2025-09-26"
"C32769","C74456",,"Anatomical Location","INCISOR",,"A tooth between the canines in either jaw.","Incisor","SEND CT 2025-09-26"
"C32770","C74456",,"Anatomical Location","INCUS","Incus","One of the three bones comprising the middle ear. This anvil-shaped bone is positioned between the malleus and the stapes. (NCI)","Incus","SEND CT 2025-09-26"
"C113695","C74456",,"Anatomical Location","INFERIOR MEDIASTINAL LYMPH NODE",,"A group of lymph nodes located in the inferior part of the mediastinum. (NCI)","Inferior Mediastinal Lymph Node","SEND CT 2025-09-26"
"C132392","C74456",,"Anatomical Location","INFERIOR PUBIC RAMUS",,"The portion of the pubic ramus that lies between the superior pubic ramus and the inferior ramus of the ischium.","Inferior Pubic Ramus","SEND CT 2025-09-26"
"C32791","C74456",,"Anatomical Location","INFERIOR TEMPORAL GYRUS",,"A ridge on the outer surface of the temporal lobe below the middle sulcus. (NCI)","Inferior Temporal Gyrus","SEND CT 2025-09-26"
"C12815","C74456",,"Anatomical Location","INFERIOR VENA CAVA","Caudal Vena Cava; Posterior Vena Cava","A large vein that returns blood from the lower half of the body to the heart.","Inferior Vena Cava","SEND CT 2025-09-26"
"C63705","C74456",,"Anatomical Location","INFRACLAVICULAR LYMPH NODE","Infraclavicular Lymph Node; Subclavicular Lymph Node","A lymph node located in the area below the clavicle. (NCI)","Infraclavicular Lymph Node","SEND CT 2025-09-26"
"C116179","C74456",,"Anatomical Location","INFRARENAL AORTA",,"The portion of the abdominal aorta distal to the renal arteries.","Infrarenal Aortic Segment","SEND CT 2025-09-26"
"C32797","C74456",,"Anatomical Location","INFRASPINATUS MUSCLE",,"A muscle of the rotator cuff, in general extending from the infraspinatus fossa of the scapula to the greater tubercle of the humerus; primary function is to extend and rotate the arm laterally.","Infraspinatus","SEND CT 2025-09-26"
"C209625","C74456",,"Anatomical Location","INFRASPINATUS TENDON",,"One of the four rotator cuff muscle tendons in the shoulder; it is located below the supraspinatus tendon, anterior to the posterior labrum, and inserts into the greater tuberosity of the humerus.","Infraspinatus Tendon","SEND CT 2025-09-26"
"C12509","C74456",,"Anatomical Location","INFRATENTORIAL BRAIN",,"The part of the brain below the tentorium cerebellum. (NCI)","Infratentorial Brain","SEND CT 2025-09-26"
"C32801","C74456",,"Anatomical Location","INGUINAL LYMPH NODE",,"Lymph node(s) in the inguinal region.","Inguinal Lymph Node","SEND CT 2025-09-26"
"C12726","C74456",,"Anatomical Location","INGUINAL REGION","Groin","The lower region of the anterior abdominal wall located laterally to the pubic region. (NCI)","Inguinal Region","SEND CT 2025-09-26"
"C32278","C74456",,"Anatomical Location","INSULAR CORTEX","Central Lobe","A distinct cerebral lobe positioned in the depth of the Sylvian fissures and overlaid entirely by adjacent regions of the cerebral hemispheres.","Central Lobe","SEND CT 2025-09-26"
"C32818","C74456",,"Anatomical Location","INTERATRIAL SEPTUM","Atrial Septum; Heart, Atrial Septum","The wall of tissue that separates the right atrium from the left atrium in the heart.","Interatrial Septum","SEND CT 2025-09-26"
"C32845","C74456",,"Anatomical Location","INTERNAL ILIAC ARTERY",,"A short thick blood vessel arising from the bifurcation of the common iliac artery with numerous branches that supply the organs, walls and viscera of the pelvis as well as the inner thigh.","Internal Iliac Artery","SEND CT 2025-09-26"
"C88142","C74456",,"Anatomical Location","INTERNAL ILIAC LYMPH NODE",,"A lymph node located along the internal iliac artery. (NCI)","Internal Iliac Lymph Node","SEND CT 2025-09-26"
"C52941","C74456",,"Anatomical Location","INTERNAL MAMMARY ARTERY",,"An artery of the thoracic wall; in general it arises from the subclavian artery and branches into the musculophrenic and superior epigastric arteries.","Internal Mammary Artery","SEND CT 2025-09-26"
"C32853","C74456",,"Anatomical Location","INTERNAL MAMMARY LYMPH NODE",,"Lymph node(s) in or adjacent to the mammary gland.","Internal Mammary Lymph Node","SEND CT 2025-09-26"
"C186123","C74456",,"Anatomical Location","INTERPARIETAL BONE",,"A bone of the skull situated between the parietal and supraoccipital bones.","Interparietal Bone","SEND CT 2025-09-26"
"C114200","C74456",,"Anatomical Location","INTERPHALANGEAL JOINT 1 OF THE FOOT","IP1 of the Foot","A ginglymoid (hinge) synovial joint within the first digit of the foot articulating the proximal and distal phalanges. (NCI)","Interphalangeal Joint 1 of the Foot","SEND CT 2025-09-26"
"C102301","C74456",,"Anatomical Location","INTERPHALANGEAL JOINT 1","IP1","A ginglymoid (hinge) synovial joint within the first digit of the hand or foot articulating the proximal and distal phalanges. (NCI)","Interphalangeal Joint 1","SEND CT 2025-09-26"
"C114201","C74456",,"Anatomical Location","INTERPHALANGEAL JOINT 2 OF THE FOOT","IP2 of the Foot","A ginglymoid (hinge) synovial joint between the phalanges of the second digit of the foot. (NCI)","Interphalangeal Joint 2 of the Foot","SEND CT 2025-09-26"
"C114190","C74456",,"Anatomical Location","INTERPHALANGEAL JOINT 2 OF THE HAND","IP2 of the Hand","A ginglymoid (hinge) synovial joint between the phalanges of the second digit of the hand. (NCI)","Interphalangeal Joint 2 of the Hand","SEND CT 2025-09-26"
"C102302","C74456",,"Anatomical Location","INTERPHALANGEAL JOINT 2","IP2","A ginglymoid (hinge) synovial joint between the phalanges of the second digit of the hand or foot. (NCI)","Interphalangeal Joint 2","SEND CT 2025-09-26"
"C114202","C74456",,"Anatomical Location","INTERPHALANGEAL JOINT 3 OF THE FOOT","IP3 of the Foot","A ginglymoid (hinge) synovial joint between the phalanges of the third digit of the foot. (NCI)","Interphalangeal Joint 3 of the Foot","SEND CT 2025-09-26"
"C114191","C74456",,"Anatomical Location","INTERPHALANGEAL JOINT 3 OF THE HAND","IP3 of the Hand","A ginglymoid (hinge) synovial joint between the phalanges of the third digit of the hand. (NCI)","Interphalangeal Joint 3 of the Hand","SEND CT 2025-09-26"
"C102303","C74456",,"Anatomical Location","INTERPHALANGEAL JOINT 3","IP3","A ginglymoid (hinge) synovial joint between the phalanges of the third digit of the hand or foot. (NCI)","Interphalangeal Joint 3","SEND CT 2025-09-26"
"C114203","C74456",,"Anatomical Location","INTERPHALANGEAL JOINT 4 OF THE FOOT","IP4 of the Foot","A ginglymoid (hinge) synovial joint between the phalanges of the fourth digit of the foot. (NCI)","Interphalangeal Joint 4 of the Foot","SEND CT 2025-09-26"
"C114192","C74456",,"Anatomical Location","INTERPHALANGEAL JOINT 4 OF THE HAND","IP4 of the Hand","A ginglymoid (hinge) synovial joint between the phalanges of the fourth digit of the hand. (NCI)","Interphalangeal Joint 4 of the Hand","SEND CT 2025-09-26"
"C102304","C74456",,"Anatomical Location","INTERPHALANGEAL JOINT 4","IP4","A ginglymoid (hinge) synovial joint between the phalanges of the fourth digit of the hand or foot. (NCI)","Interphalangeal Joint 4","SEND CT 2025-09-26"
"C114204","C74456",,"Anatomical Location","INTERPHALANGEAL JOINT 5 OF THE FOOT","IP5 of the Foot","A ginglymoid (hinge) synovial joint between the phalanges of the fifth digit of the foot. (NCI)","Interphalangeal Joint 5 of the Foot","SEND CT 2025-09-26"
"C114193","C74456",,"Anatomical Location","INTERPHALANGEAL JOINT 5 OF THE HAND","IP5 of the Hand","A ginglymoid (hinge) synovial joint between the phalanges of the fifth digit of the hand. (NCI)","Interphalangeal Joint 5 of the Hand","SEND CT 2025-09-26"
"C102305","C74456",,"Anatomical Location","INTERPHALANGEAL JOINT 5","IP5","A ginglymoid (hinge) synovial joint between the phalanges of the fifth digit of the hand or foot. (NCI)","Interphalangeal Joint 5","SEND CT 2025-09-26"
"C32868","C74456",,"Anatomical Location","INTERPHALANGEAL JOINT OF THE HAND","Interphalangeal Joint of the Hand","The hinge synovial joints between the phalanges of the fingers. (NCI)","Interphalangeal Joint of the Hand","SEND CT 2025-09-26"
"C32867","C74456",,"Anatomical Location","INTERPHALANGEAL OF THE FOOT","IP of the Foot","The hinge synovial joints between the bones of the toes. (NCI)","Interphalangeal Joint of the Foot","SEND CT 2025-09-26"
"C102306","C74456",,"Anatomical Location","INTERPHALANGEAL THUMB JOINT","Interphalangeal Joint 1 of the Hand; IP THUMB; IP1 of the Hand","A condyloid synovial joint within the thumb articulating the proximal and distal phalanges.","Interphalangeal Thumb Joint","SEND CT 2025-09-26"
"C120672","C74456",,"Anatomical Location","INTERTROCHANTERIC REGION",,"The bony region in the proximal portion of the femur between the greater, lesser and sub- (also called the third) trochanters.","Intertrochanteric Region","SEND CT 2025-09-26"
"C32874","C74456",,"Anatomical Location","INTERVENTRICULAR SEPTUM","Heart, Ventricular Septum; Interventricular Septal Wall; Ventricular Septum","The wall that separates the left and right ventricles of the heart. (NCI)","Interventricular Septum","SEND CT 2025-09-26"
"C49478","C74456",,"Anatomical Location","INTESTINAL WALL",,"The tissue that forms the wall of the small and large intestine.","Intestinal Wall Tissue","SEND CT 2025-09-26"
"C12736","C74456",,"Anatomical Location","INTESTINE",,"The portion of the gastrointestinal tract that includes the small and large intestines.","Intestine","SEND CT 2025-09-26"
"C12980","C74456",,"Anatomical Location","INTRACRANIAL ARTERY",,"Any of the arteries that originate within the intracranial cavity.","Intracranial Artery","SEND CT 2025-09-26"
"C12677","C74456",,"Anatomical Location","INTRAHEPATIC BILE DUCT",,"The bile ducts that pass through and drain bile from the liver. (NCI)","Intrahepatic Bile Duct","SEND CT 2025-09-26"
"C96803","C74456",,"Anatomical Location","INTRAHEPATIC LARGE BILE DUCT","Perihilar Bile Duct","The larger bile ducts which are located within the liver and drain bile from the smaller peripheral intrahepatic bile ducts into the right and left hepatic ducts.","Intrahepatic Large Bile Duct","SEND CT 2025-09-26"
"C214699","C74456",,"Anatomical Location","INTRARETINAL SPACE",,"The potential space within the retinal layers.","Intraretinal Space","SEND CT 2025-09-26"
"C12359","C74456",,"Anatomical Location","INTRATHORACIC LYMPH NODE",,"Any lymph node within the thoracic cavity.","Intrathoracic Lymph Node","SEND CT 2025-09-26"
"C12737","C74456",,"Anatomical Location","IRIS",,"The tissue in the eye that separates the anterior chamber from the posterior chamber.","Iris","SEND CT 2025-09-26"
"C105446","C74456",,"Anatomical Location","ISCHIAL TUBEROSITY",,"The bony prominence of the lower part of the ischium. (NCI)","Ischial Tuberosity","SEND CT 2025-09-26"
"C103455","C74456",,"Anatomical Location","ISCHIORECTAL FOSSA",,"A tetrahedral region of adipose tissue located in the ischiorectal region with its base between the tuberosity of the ischium and the lower end of the rectum and its apex at the point where the obturator fascia and the Levator ani membrane divide.","Ischiorectal Fossa","SEND CT 2025-09-26"
"C32884","C74456",,"Anatomical Location","ISCHIUM","Ischium","The most posterior and ventral bone making up the pelvis. (NCI)","Ischium","SEND CT 2025-09-26"
"C48821","C74456",,"Anatomical Location","JAW",,"The structures of the skull that frame the mouth.","Jaw Bone","SEND CT 2025-09-26"
"C12388","C74456",,"Anatomical Location","JEJUNUM",,"The portion of the small intestine between the duodenum and ileum.","Jejunum","SEND CT 2025-09-26"
"C13044","C74456",,"Anatomical Location","JOINT","Articulation; Joint","The connection point between two bones or skeletal elements. The joint may be fixed or movable. (NCI)","Joint","SEND CT 2025-09-26"
"C12738","C74456",,"Anatomical Location","JUGULAR VEIN","Vena Jugularis","One of the veins of the neck; in general it arises from the junction of the maxillary and linguofacial veins and drains into the brachiocephalic or the cranial caval vein.","Jugular Vein","SEND CT 2025-09-26"
"C186124","C74456",,"Anatomical Location","KIDNEY INTERPOLAR REGION",,"The portion of the kidney that is located between the upper and lower poles and contains the renal hilum.","Kidney Interpolar Region","SEND CT 2025-09-26"
"C12415","C74456",,"Anatomical Location","KIDNEY",,"The organs of the urinary tract located in the retroperitoneal cavity adjacent to the spine and composed of the renal cortex and the renal medulla.","Kidney","SEND CT 2025-09-26"
"C12739","C74456",,"Anatomical Location","KIDNEY, CORTEX","Renal Cortex","The division of the renal parenchyma located between the renal capsule and the renal medulla, which contains glomeruli and tubules for filtering blood.","Renal Cortex","SEND CT 2025-09-26"
"C32740","C74456",,"Anatomical Location","KIDNEY, HILUM","Hilar Area of the Kidney","The concave area of the kidney through which the renal artery enters and the renal vein and ureter exit the organ. (NCI)","Hilar Area of the Kidney","SEND CT 2025-09-26"
"C93180","C74456",,"Anatomical Location","KIDNEY, LOWER POLE","Lower Pole of the Kidney","The lowermost portion of the kidney.","Lower Pole of Kidney","SEND CT 2025-09-26"
"C12740","C74456",,"Anatomical Location","KIDNEY, MEDULLA","Renal Medulla","The deepest division of the renal parenchyma, comprising the renal pyramids, which contain a dense network of nephrons, all of which are part of the blood filtration process.","Renal Medulla","SEND CT 2025-09-26"
"C93179","C74456",,"Anatomical Location","KIDNEY, UPPER POLE","Upper Pole of the Kidney","The uppermost portion of the kidney.","Upper Pole of Kidney","SEND CT 2025-09-26"
"C204655","C74456",,"Anatomical Location","KNEE EXTENSOR MUSCLES",,"A group of muscles in the knee, the rectus femoris, vastus lateralis, vastus medius, and vastus intermedius muscles; primary function is to extend the knee.","Knee Extensor Muscles","SEND CT 2025-09-26"
"C186125","C74456",,"Anatomical Location","KNEE FLEXOR MUSCLES",,"A group of muscles in the knee, the sartorius, popliteus, gastrocnemius, gracilis, semi-tendinosis, semi-membranosis, and bicep femoris muscles; primary function is to flex the knee.","Knee Flexor Muscles","SEND CT 2025-09-26"
"C161388","C74456",,"Anatomical Location","KNEE JOINT TENDONS",,"The tendons that connect the quadriceps muscles to the kneecap, the hamstring muscles to the shin bone and fibula, and the patella to the top part of the fibula, enabling flexion, extension, and slight rotation of the knee. (NCI)","Knee Joint Tendons","SEND CT 2025-09-26"
"C32898","C74456",,"Anatomical Location","KNEE JOINT","Femorotibial Joint; Joint, Stifle; Knee; Tibiofemoral Joint","The joint connecting the lower part of the femur with the upper part of the tibia.","Knee Joint","SEND CT 2025-09-26"
"C32899","C74456",,"Anatomical Location","L1 VERTEBRA","L1 Vertebra","The first lumbar vertebra counting from the top down. (NCI)","L1 Vertebra","SEND CT 2025-09-26"
"C32900","C74456",,"Anatomical Location","L2 VERTEBRA","L2 Vertebra","The second lumbar vertebra counting from the top down. (NCI)","L2 Vertebra","SEND CT 2025-09-26"
"C112327","C74456",,"Anatomical Location","L2-L3 INTERVERTEBRAL SPACE",,"The space between the L2 and L3 vertebrae.","L2-L3 Intervertebral Space","SEND CT 2025-09-26"
"C32901","C74456",,"Anatomical Location","L3 VERTEBRA","L3 Vertebra","The third lumbar vertebra counting from the top down. (NCI)","L3 Vertebra","SEND CT 2025-09-26"
"C112328","C74456",,"Anatomical Location","L3-L4 INTERVERTEBRAL SPACE",,"The space between the L3 and L4 vertebrae.","L3-L4 Intervertebral Space","SEND CT 2025-09-26"
"C32902","C74456",,"Anatomical Location","L4 VERTEBRA","L4 Vertebra","The fourth lumbar vertebra counting from the top down. (NCI)","L4 Vertebra","SEND CT 2025-09-26"
"C142296","C74456",,"Anatomical Location","L4-L5 INTERVERTEBRAL SPACE",,"The space between the L4 and L5 vertebrae.","L4-L5 Intervertebral Space","SEND CT 2025-09-26"
"C32903","C74456",,"Anatomical Location","L5 VERTEBRA","L5 Vertebra","The fifth lumbar vertebra counting from the top down. (NCI)","L5 Vertebra","SEND CT 2025-09-26"
"C154781","C74456",,"Anatomical Location","L5-S1 INTERVERTEBRAL SPACE",,"The space between the L5 and S1 vertebrae.","L5-S1 Intervertebral Space","SEND CT 2025-09-26"
"C120673","C74456",,"Anatomical Location","L6 VERTEBRA",,"A congenital anomaly of the spine, where an extra or supernumerary lumbar vertebra arises from below the 5th lumbar vertebra.","Extra Lumbar Vertebra","SEND CT 2025-09-26"
"C32906","C74456",,"Anatomical Location","LACRIMAL BONE","Lacrimal Bone","A small rectangular thin plate forming part of the medial orbit wall. It is located posterior to the frontal process of the maxilla and articulates with the inferior nasal concha, ethmoid, frontal, and maxillary bones. (NCI)","Lacrimal Bone","SEND CT 2025-09-26"
"C12346","C74456",,"Anatomical Location","LACRIMAL GLAND",,"The exocrine glands that produce the watery serous component of tears.","Lacrimal Gland","SEND CT 2025-09-26"
"C102313","C74456",,"Anatomical Location","LAD SEPTAL PERFORATOR ARTERY","LAD SEPTAL PERFORATOR ARTERY SEGMENTS; LAD SP","The arteries that arise from the left anterior descending (LAD) artery that supply the interventricular septum.","Left Anterior Descending Septal Perforator Artery","SEND CT 2025-09-26"
"C12379","C74456",,"Anatomical Location","LARGE INTESTINE","Large Bowel","The avillous section of the intestine composed of crypts and extending from the terminal small intestine to the external orifice.","Large Intestine","SEND CT 2025-09-26"
"C12420","C74456",,"Anatomical Location","LARYNX",,"The cartilaginous structure of the respiratory tract between the pharynx and the trachea.","Larynx","SEND CT 2025-09-26"
"C102307","C74456",,"Anatomical Location","LATERAL FIRST DIAGONAL BRANCH ARTERY","LAT 1ST DIAG; LATERAL FIRST DIAGONAL BRANCH ARTERY SEGMENT","The lateral branch distal to a bifurcation of the first diagonal artery.","Lateral First Diagonal Branch Artery","SEND CT 2025-09-26"
"C102308","C74456",,"Anatomical Location","LATERAL FIRST OBTUSE MARGINAL BRANCH ARTERY","First Obtuse Marginal Lateral Branch; LAT 1ST OM; LATERAL FIRST OBTUSE MARGINAL BRANCH ARTERY SEGMENT","The lateral branch distal to a bifurcation of the first obtuse marginal artery.","Lateral First Obtuse Marginal Branch Artery","SEND CT 2025-09-26"
"C139202","C74456",,"Anatomical Location","LATERAL HUMERAL EPICONDYLE",,"A bone prominence at the distal end of the humerus to which the radial collateral ligament of the elbow joint, the anconeus and supinator muscles, and the common extensor tendon are attached.","Lateral Humeral Epicondyle","SEND CT 2025-09-26"
"C102309","C74456",,"Anatomical Location","LATERAL RAMUS INTERMEDIUS ARTERY","LAT RAMUS; LATERAL RAMUS INTERMEDIUS ARTERY SEGMENT","The lateral branch distal to a bifurcation of the ramus intermedius artery.","Lateral Ramus Intermedius Artery","SEND CT 2025-09-26"
"C102310","C74456",,"Anatomical Location","LATERAL SECOND DIAGONAL BRANCH ARTERY","LAT 2ND DIAG; LATERAL SECOND DIAGONAL BRANCH ARTERY SEGMENT","The lateral branch distal to a bifurcation of the second diagonal artery.","Lateral Second Diagonal Branch Artery","SEND CT 2025-09-26"
"C102311","C74456",,"Anatomical Location","LATERAL SECOND OBTUSE MARGINAL BRANCH ARTERY","LAT 2ND OM; LATERAL SECOND OBTUSE MARGINAL BRANCH ARTERY SEGMENT; Second Obtuse Marginal Lateral Branch","The lateral branch distal to a bifurcation of the second obtuse marginal artery.","Lateral Second Obtuse Marginal Branch Artery","SEND CT 2025-09-26"
"C102312","C74456",,"Anatomical Location","LATERAL THIRD DIAGONAL BRANCH ARTERY","LAT 3RD DIAG; LATERAL THIRD DIAGONAL BRANCH ARTERY SEGMENT","The lateral branch distal to a bifurcation of the third diagonal artery.","Lateral Third Diagonal Branch Artery","SEND CT 2025-09-26"
"C102425","C74456",,"Anatomical Location","LATERAL THIRD OBTUSE MARGINAL BRANCH ARTERY","LAT 3RD OM; LATERAL THIRD OBTUSE MARGINAL BRANCH ARTERY SEGMENT; Third Obtuse Marginal Lateral Branch","The lateral branch distal to a bifurcation of the third obtuse marginal artery.","Lateral Third Obtuse Marginal Branch Artery","SEND CT 2025-09-26"
"C33150","C74456",,"Anatomical Location","LATISSIMUS DORSI MUSCLE","Musculus Latissimus Dorsi","A muscle of the back, in general extending from the thoracolumbar vertebrae and scapula to the proximal humerus; primary function is adduction, extension, and medial rotation of the shoulder joint.","Musculus Latissimus Dorsi","SEND CT 2025-09-26"
"C116175","C74456",,"Anatomical Location","LEFT ANTERIOR DESCENDING ARTERY OSTIUM",,"The opening of the left anterior descending coronary artery at its origin.","Left Anterior Descending Artery Ostium","SEND CT 2025-09-26"
"C221580","C74456",,"Anatomical Location","LEFT ATRIAL ENDOCARDIUM",,"The innermost layer of endothelial cells and connective tissue that lines the left atrium.","Left Atrial Endocardium","SEND CT 2025-09-26"
"C116177","C74456",,"Anatomical Location","LEFT ATRIOVENTRICULAR ARTERY",,"The first posterolateral branch originating from the posterior atrioventricular left circumflex artery in left dominant and mixed circulations.","Left Atrioventricular Artery","SEND CT 2025-09-26"
"C116176","C74456",,"Anatomical Location","LEFT CIRCUMFLEX ARTERY OSTIUM",,"The opening of the left circumflex artery at its origin.","Left Circumflex Artery Ostium","SEND CT 2025-09-26"
"C12874","C74456",,"Anatomical Location","LEFT CIRCUMFLEX CORONARY ARTERY",,"An artery arising from the bifurcation of the left coronary artery that runs along the coronary groove.","Circumflex Branch of the Left Coronary Artery","SEND CT 2025-09-26"
"C116174","C74456",,"Anatomical Location","LEFT MAIN CORONARY ARTERY BIFURCATION",,"The portion of the distal end of the left main coronary artery that branches into the left anterior descending artery and the left circumflex artery.","Left Main Coronary Artery Bifurcation","SEND CT 2025-09-26"
"C116173","C74456",,"Anatomical Location","LEFT MAIN CORONARY ARTERY BODY",,"The segment of the left main coronary artery that is bounded by its ostium and bifurcation.","Left Main Coronary Artery Body","SEND CT 2025-09-26"
"C116172","C74456",,"Anatomical Location","LEFT MAIN CORONARY ARTERY OSTIUM",,"The opening of the left coronary artery at its origin.","Left Main Coronary Artery Ostium","SEND CT 2025-09-26"
"C116178","C74456",,"Anatomical Location","LEFT POSTERIOR DESCENDING ARTERY",,"The second posterolateral branch originating from the posterior atrioventricular left circumflex artery in left dominant and mixed circulations.","Left Posterior Descending Artery","SEND CT 2025-09-26"
"C102314","C74456",,"Anatomical Location","LEFT POSTEROLATERAL DESCENDING ARTERY","LEFT POSTEROLATERAL DESCENDING ARTERY SEGMENT; LPDA","In an individual with a left-dominant heart, this branch arises from the circumflex artery atrioventricular groove continuation and supplies the inferior apex of the heart.","Left Posterolateral Descending Artery","SEND CT 2025-09-26"
"C127650","C74456",,"Anatomical Location","LEFT VENTRICULAR APEX SEGMENT",,"The apical cap division of the left ventricular myocardium as determined using the AHA 17-Segment Model (Cerqueira MD, Weissman NJ, Dilsizian V, Jacobs AK, Kaul S, Laskey WK, Pennell DJ, Rumberger JA, Ryan T, Verani MS; American Heart Association Writing Group on Myocardial Segmentation and Registration for Cardiac Imaging. Standardized myocardial segmentation and nomenclature for tomographic imaging of the heart. A statement for healthcare professionals from the Cardiac Imaging Committee of the Council on Clinical Cardiology of the American Heart Association. Circulation. 2002 Jan 29;105(4):539-42.).","Left Ventricular Apex Segment","SEND CT 2025-09-26"
"C127651","C74456",,"Anatomical Location","LEFT VENTRICULAR APICAL ANTERIOR SEGMENT",,"The anterior portion of the apical division of the left ventricular myocardium as determined using the AHA 17-Segment Model (Cerqueira MD, Weissman NJ, Dilsizian V, Jacobs AK, Kaul S, Laskey WK, Pennell DJ, Rumberger JA, Ryan T, Verani MS; American Heart Association Writing Group on Myocardial Segmentation and Registration for Cardiac Imaging. Standardized myocardial segmentation and nomenclature for tomographic imaging of the heart. A statement for healthcare professionals from the Cardiac Imaging Committee of the Council on Clinical Cardiology of the American Heart Association. Circulation. 2002 Jan 29;105(4):539-42.).","Left Ventricular Apical Anterior Segment","SEND CT 2025-09-26"
"C127652","C74456",,"Anatomical Location","LEFT VENTRICULAR APICAL INFERIOR SEGMENT",,"The inferior portion of the apical division of the left ventricular myocardium as determined using the AHA 17-Segment Model (Cerqueira MD, Weissman NJ, Dilsizian V, Jacobs AK, Kaul S, Laskey WK, Pennell DJ, Rumberger JA, Ryan T, Verani MS; American Heart Association Writing Group on Myocardial Segmentation and Registration for Cardiac Imaging. Standardized myocardial segmentation and nomenclature for tomographic imaging of the heart. A statement for healthcare professionals from the Cardiac Imaging Committee of the Council on Clinical Cardiology of the American Heart Association. Circulation. 2002 Jan 29;105(4):539-42.).","Left Ventricular Apical Inferior Segment","SEND CT 2025-09-26"
"C127653","C74456",,"Anatomical Location","LEFT VENTRICULAR APICAL LATERAL SEGMENT",,"The lateral portion of the apical division of the left ventricular myocardium as determined using the AHA 17-Segment Model (Cerqueira MD, Weissman NJ, Dilsizian V, Jacobs AK, Kaul S, Laskey WK, Pennell DJ, Rumberger JA, Ryan T, Verani MS; American Heart Association Writing Group on Myocardial Segmentation and Registration for Cardiac Imaging. Standardized myocardial segmentation and nomenclature for tomographic imaging of the heart. A statement for healthcare professionals from the Cardiac Imaging Committee of the Council on Clinical Cardiology of the American Heart Association. Circulation. 2002 Jan 29;105(4):539-42.).","Left Ventricular Apical Lateral Segment","SEND CT 2025-09-26"
"C127654","C74456",,"Anatomical Location","LEFT VENTRICULAR APICAL SEPTAL SEGMENT",,"The septal portion of the apical division of the left ventricular myocardium as determined using the AHA 17-Segment Model (Cerqueira MD, Weissman NJ, Dilsizian V, Jacobs AK, Kaul S, Laskey WK, Pennell DJ, Rumberger JA, Ryan T, Verani MS; American Heart Association Writing Group on Myocardial Segmentation and Registration for Cardiac Imaging. Standardized myocardial segmentation and nomenclature for tomographic imaging of the heart. A statement for healthcare professionals from the Cardiac Imaging Committee of the Council on Clinical Cardiology of the American Heart Association. Circulation. 2002 Jan 29;105(4):539-42.).","Left Ventricular Apical Septal Segment","SEND CT 2025-09-26"
"C127655","C74456",,"Anatomical Location","LEFT VENTRICULAR BASAL ANTERIOR SEGMENT",,"The anterior portion of the basal division of the left ventricular myocardium as determined using the AHA 17-Segment Model (Cerqueira MD, Weissman NJ, Dilsizian V, Jacobs AK, Kaul S, Laskey WK, Pennell DJ, Rumberger JA, Ryan T, Verani MS; American Heart Association Writing Group on Myocardial Segmentation and Registration for Cardiac Imaging. Standardized myocardial segmentation and nomenclature for tomographic imaging of the heart. A statement for healthcare professionals from the Cardiac Imaging Committee of the Council on Clinical Cardiology of the American Heart Association. Circulation. 2002 Jan 29;105(4):539-42.).","Left Ventricular Basal Anterior Segment","SEND CT 2025-09-26"
"C127656","C74456",,"Anatomical Location","LEFT VENTRICULAR BASAL ANTEROLATERAL SEGMENT",,"The anterolateral portion of the basal division of the left ventricular myocardium as determined using the AHA 17-Segment Model (Cerqueira MD, Weissman NJ, Dilsizian V, Jacobs AK, Kaul S, Laskey WK, Pennell DJ, Rumberger JA, Ryan T, Verani MS; American Heart Association Writing Group on Myocardial Segmentation and Registration for Cardiac Imaging. Standardized myocardial segmentation and nomenclature for tomographic imaging of the heart. A statement for healthcare professionals from the Cardiac Imaging Committee of the Council on Clinical Cardiology of the American Heart Association. Circulation. 2002 Jan 29;105(4):539-42.).","Left Ventricular Basal Anterolateral Segment","SEND CT 2025-09-26"
"C127657","C74456",,"Anatomical Location","LEFT VENTRICULAR BASAL ANTEROSEPTAL SEGMENT",,"The anteroseptal portion of the basal division of the left ventricular myocardium as determined using the AHA 17-Segment Model (Cerqueira MD, Weissman NJ, Dilsizian V, Jacobs AK, Kaul S, Laskey WK, Pennell DJ, Rumberger JA, Ryan T, Verani MS; American Heart Association Writing Group on Myocardial Segmentation and Registration for Cardiac Imaging. Standardized myocardial segmentation and nomenclature for tomographic imaging of the heart. A statement for healthcare professionals from the Cardiac Imaging Committee of the Council on Clinical Cardiology of the American Heart Association. Circulation. 2002 Jan 29;105(4):539-42.).","Left Ventricular Basal Anteroseptal Segment","SEND CT 2025-09-26"
"C127658","C74456",,"Anatomical Location","LEFT VENTRICULAR BASAL INFERIOR SEGMENT",,"The inferior portion of the basal division of the left ventricular myocardium as determined using the AHA 17-Segment Model (Cerqueira MD, Weissman NJ, Dilsizian V, Jacobs AK, Kaul S, Laskey WK, Pennell DJ, Rumberger JA, Ryan T, Verani MS; American Heart Association Writing Group on Myocardial Segmentation and Registration for Cardiac Imaging. Standardized myocardial segmentation and nomenclature for tomographic imaging of the heart. A statement for healthcare professionals from the Cardiac Imaging Committee of the Council on Clinical Cardiology of the American Heart Association. Circulation. 2002 Jan 29;105(4):539-42.).","Left Ventricular Basal Inferior Segment","SEND CT 2025-09-26"
"C127659","C74456",,"Anatomical Location","LEFT VENTRICULAR BASAL INFEROLATERAL SEGMENT",,"The inferolateral portion of the basal division of the left ventricular myocardium as determined using the AHA 17-Segment Model (Cerqueira MD, Weissman NJ, Dilsizian V, Jacobs AK, Kaul S, Laskey WK, Pennell DJ, Rumberger JA, Ryan T, Verani MS; American Heart Association Writing Group on Myocardial Segmentation and Registration for Cardiac Imaging. Standardized myocardial segmentation and nomenclature for tomographic imaging of the heart. A statement for healthcare professionals from the Cardiac Imaging Committee of the Council on Clinical Cardiology of the American Heart Association. Circulation. 2002 Jan 29;105(4):539-42.).","Left Ventricular Basal Inferolateral Segment","SEND CT 2025-09-26"
"C127660","C74456",,"Anatomical Location","LEFT VENTRICULAR BASAL INFEROSEPTAL SEGMENT",,"The inferoseptal portion of the basal division of the left ventricular myocardium as determined using the AHA 17-Segment Model (Cerqueira MD, Weissman NJ, Dilsizian V, Jacobs AK, Kaul S, Laskey WK, Pennell DJ, Rumberger JA, Ryan T, Verani MS; American Heart Association Writing Group on Myocardial Segmentation and Registration for Cardiac Imaging. Standardized myocardial segmentation and nomenclature for tomographic imaging of the heart. A statement for healthcare professionals from the Cardiac Imaging Committee of the Council on Clinical Cardiology of the American Heart Association. Circulation. 2002 Jan 29;105(4):539-42.).","Left Ventricular Basal Inferoseptal Segment","SEND CT 2025-09-26"
"C221581","C74456",,"Anatomical Location","LEFT VENTRICULAR ENDOCARDIUM",,"The innermost layer of endothelial cells and connective tissue that lines the left ventricle.","Left Ventricular Endocardium","SEND CT 2025-09-26"
"C102315","C74456",,"Anatomical Location","LEFT VENTRICULAR EPICARDIUM",,"The outermost layer of cardiac tissue lining of the left ventricle.","Left Ventricular Epicardium","SEND CT 2025-09-26"
"C127661","C74456",,"Anatomical Location","LEFT VENTRICULAR MID ANTERIOR SEGMENT",,"The anterior portion of the mid-cavity division of the left ventricular myocardium as determined using the AHA 17-Segment Model (Cerqueira MD, Weissman NJ, Dilsizian V, Jacobs AK, Kaul S, Laskey WK, Pennell DJ, Rumberger JA, Ryan T, Verani MS; American Heart Association Writing Group on Myocardial Segmentation and Registration for Cardiac Imaging. Standardized myocardial segmentation and nomenclature for tomographic imaging of the heart. A statement for healthcare professionals from the Cardiac Imaging Committee of the Council on Clinical Cardiology of the American Heart Association. Circulation. 2002 Jan 29;105(4):539-42.).","Left Ventricular Mid Anterior Segment","SEND CT 2025-09-26"
"C127662","C74456",,"Anatomical Location","LEFT VENTRICULAR MID ANTEROLATERAL SEGMENT",,"The anterolateral portion of the mid-cavity division of the left ventricular myocardium as determined using the AHA 17-Segment Model (Cerqueira MD, Weissman NJ, Dilsizian V, Jacobs AK, Kaul S, Laskey WK, Pennell DJ, Rumberger JA, Ryan T, Verani MS; American Heart Association Writing Group on Myocardial Segmentation and Registration for Cardiac Imaging. Standardized myocardial segmentation and nomenclature for tomographic imaging of the heart. A statement for healthcare professionals from the Cardiac Imaging Committee of the Council on Clinical Cardiology of the American Heart Association. Circulation. 2002 Jan 29;105(4):539-42.).","Left Ventricular Mid Anterolateral Segment","SEND CT 2025-09-26"
"C127663","C74456",,"Anatomical Location","LEFT VENTRICULAR MID ANTEROSEPTAL SEGMENT",,"The anteroseptal portion of the mid-cavity division of the left ventricular myocardium as determined using the AHA 17-Segment Model (Cerqueira MD, Weissman NJ, Dilsizian V, Jacobs AK, Kaul S, Laskey WK, Pennell DJ, Rumberger JA, Ryan T, Verani MS; American Heart Association Writing Group on Myocardial Segmentation and Registration for Cardiac Imaging. Standardized myocardial segmentation and nomenclature for tomographic imaging of the heart. A statement for healthcare professionals from the Cardiac Imaging Committee of the Council on Clinical Cardiology of the American Heart Association. Circulation. 2002 Jan 29;105(4):539-42.).","Left Ventricular Mid Anteroseptal Segment","SEND CT 2025-09-26"
"C127664","C74456",,"Anatomical Location","LEFT VENTRICULAR MID INFERIOR SEGMENT",,"The inferior portion of the mid-cavity division of the left ventricular myocardium as determined using the AHA 17-Segment Model (Cerqueira MD, Weissman NJ, Dilsizian V, Jacobs AK, Kaul S, Laskey WK, Pennell DJ, Rumberger JA, Ryan T, Verani MS; American Heart Association Writing Group on Myocardial Segmentation and Registration for Cardiac Imaging. Standardized myocardial segmentation and nomenclature for tomographic imaging of the heart. A statement for healthcare professionals from the Cardiac Imaging Committee of the Council on Clinical Cardiology of the American Heart Association. Circulation. 2002 Jan 29;105(4):539-42.).","Left Ventricular Mid Inferior Segment","SEND CT 2025-09-26"
"C127665","C74456",,"Anatomical Location","LEFT VENTRICULAR MID INFEROLATERAL SEGMENT",,"The inferolateral portion of the mid-cavity division of the left ventricular myocardium as determined using the AHA 17-Segment Model (Cerqueira MD, Weissman NJ, Dilsizian V, Jacobs AK, Kaul S, Laskey WK, Pennell DJ, Rumberger JA, Ryan T, Verani MS; American Heart Association Writing Group on Myocardial Segmentation and Registration for Cardiac Imaging. Standardized myocardial segmentation and nomenclature for tomographic imaging of the heart. A statement for healthcare professionals from the Cardiac Imaging Committee of the Council on Clinical Cardiology of the American Heart Association. Circulation. 2002 Jan 29;105(4):539-42.).","Left Ventricular Mid Inferolateral Segment","SEND CT 2025-09-26"
"C127666","C74456",,"Anatomical Location","LEFT VENTRICULAR MID INFEROSEPTAL SEGMENT",,"The inferoseptal portion of the mid-cavity division of the left ventricular myocardium as determined using the AHA 17-Segment Model (Cerqueira MD, Weissman NJ, Dilsizian V, Jacobs AK, Kaul S, Laskey WK, Pennell DJ, Rumberger JA, Ryan T, Verani MS; American Heart Association Writing Group on Myocardial Segmentation and Registration for Cardiac Imaging. Standardized myocardial segmentation and nomenclature for tomographic imaging of the heart. A statement for healthcare professionals from the Cardiac Imaging Committee of the Council on Clinical Cardiology of the American Heart Association. Circulation. 2002 Jan 29;105(4):539-42.).","Left Ventricular Mid Inferoseptal Segment","SEND CT 2025-09-26"
"C52749","C74456",,"Anatomical Location","LEG SKIN","Leg Skin","The integument that covers the leg.","Leg Skin","SEND CT 2025-09-26"
"C32974","C74456",,"Anatomical Location","LEG","Leg","The portion of the lower extremity between the knee and the ankle.","Leg","SEND CT 2025-09-26"
"C12743","C74456",,"Anatomical Location","LENS","Crystalline Lens; Ocular Lens","The structure of the eye through which light is focused onto the retina.","Lens","SEND CT 2025-09-26"
"C32979","C74456",,"Anatomical Location","LEPTOMENINGES",,"The two innermost layers of tissue that cover the brain and spinal cord, the arachnoid mater and the pia mater. (NCI)","Leptomeninges","SEND CT 2025-09-26"
"C12261","C74456",,"Anatomical Location","LESSER CURVATURE OF THE STOMACH",,"The medial border of the stomach. It is concave in shape and extends from the cardiac orifice to the pyloric orifice.","Lesser Curvature of the Stomach","SEND CT 2025-09-26"
"C32982","C74456",,"Anatomical Location","LESSER TROCHANTER",,"A cone-shaped projection in the shaft of the femur in which the iliopsoas muscle is attached. (NCI)","Lesser Trochanter","SEND CT 2025-09-26"
"C13046","C74456",,"Anatomical Location","LIGAMENT","Ligament","Band of fibrous tissue connecting bone to bone or cartilage to bone thereby supporting or strengthening a joint. (NCI)","Ligament","SEND CT 2025-09-26"
"C12429","C74456",,"Anatomical Location","LIMB","Extremity","A jointed extremity of the upper/thoracic or lower/pelvic regions.","Limb","SEND CT 2025-09-26"
"C12742","C74456",,"Anatomical Location","LIMB, LOWER","Lower Extremity","The limb that is composed of the hip, thigh, leg and foot. (NCI)","Lower Extremity","SEND CT 2025-09-26"
"C12671","C74456",,"Anatomical Location","LIMB, UPPER","Upper Extremity","The region of the body that extends distal to the scapulohumeral joint.","Upper Extremity","SEND CT 2025-09-26"
"C40373","C74456",,"Anatomical Location","LINGULA OF THE LUNG",,"A small tongue-like projection from the lower portion of the upper lobe of the left lung.","Lingula of the Lung","SEND CT 2025-09-26"
"C12220","C74456",,"Anatomical Location","LIP","Lip; Vermillion of the Lip","Fleshy fold which surrounds the opening of the mouth. (NCI)","Lip","SEND CT 2025-09-26"
"C12222","C74456",,"Anatomical Location","LIP, LOWER","External Lower Lip","The external surface of the lower lip. (NCI)","External Lower Lip","SEND CT 2025-09-26"
"C12221","C74456",,"Anatomical Location","LIP, UPPER","External Upper Lip","The external surface of the upper lip. (NCI)","External Upper Lip","SEND CT 2025-09-26"
"C32996","C74456",,"Anatomical Location","LIVER FISSURE","Liver Fissure","A groove on the surface of the liver.","Liver Fissure","SEND CT 2025-09-26"
"C49579","C74456",,"Anatomical Location","LIVER LOBE",,"Any of the large divisions of the liver.","Liver Lobe","SEND CT 2025-09-26"
"C12392","C74456",,"Anatomical Location","LIVER",,"An abdominal organ that has variable lobation which are composed mainly of hepatic lobules.","Liver","SEND CT 2025-09-26"
"C33000","C74456",,"Anatomical Location","LIVER, CAUDATE LOBE","Couinaud Segment I","The lobe of the liver situated posteriorly located between the left lobe and the inferior vena cava.","Caudate Lobe","SEND CT 2025-09-26"
"C79733","C74456",,"Anatomical Location","LIVER, LEFT LOBE ANTEROLATERAL SEGMENT","Couinaud Segment III","The lateral segment of the left lobe of the liver, located to the left of the inferior portion of the falciform ligament, anteriorly overlapping the stomach. (NCI)","Left Anterolateral Segment","SEND CT 2025-09-26"
"C79735","C74456",,"Anatomical Location","LIVER, LEFT LOBE INFEROMEDIAL SEGMENT","Couinaud Segment IVb","The medial segment of the left lobe of the liver, located inferiorly. (NCI)","Left Inferomedial Segment","SEND CT 2025-09-26"
"C198297","C74456",,"Anatomical Location","LIVER, LEFT LOBE MEDIAL SEGMENT","Couinaud Segment IV","The medial segment of the left lobe of the liver.","Left Medial Segment of Liver","SEND CT 2025-09-26"
"C79732","C74456",,"Anatomical Location","LIVER, LEFT LOBE POSTEROLATERAL SEGMENT","Couinaud Segment II","The lateral segment of the left lobe of the liver, located to the left of the superior portion of the falciform ligament and the fissure for the ligamentum venosum. (NCI)","Left Posterolateral Segment","SEND CT 2025-09-26"
"C79734","C74456",,"Anatomical Location","LIVER, LEFT LOBE SUPEROMEDIAL SEGMENT","Couinaud segment IVa","The medial segment of the left lobe of the liver, located superiorly. (NCI)","Left Superomedial Segment","SEND CT 2025-09-26"
"C32965","C74456",,"Anatomical Location","LIVER, LEFT LOBE",,"The smaller lobe of the liver extending into the left side of the body.","Left Lobe of the Liver","SEND CT 2025-09-26"
"C112404","C74456",,"Anatomical Location","LIVER, QUADRATE LOBE",,"An oblong shaped area of the liver that is situated inferior to the right lobe, bounded by the anterior margin of the liver and the porta hepatis.","Quadrate Lobe of Liver","SEND CT 2025-09-26"
"C79736","C74456",,"Anatomical Location","LIVER, RIGHT LOBE ANTEROINFERIOR SEGMENT","Couinaud Segment V","The anterior segment of the right lobe of the liver, located inferiorly. (NCI)","Right Anteroinferior Segment","SEND CT 2025-09-26"
"C79739","C74456",,"Anatomical Location","LIVER, RIGHT LOBE ANTEROSUPERIOR SEGMENT","Couinaud Segment VIII","The anterior segment of the right lobe of the liver, located superiorly. (NCI)","Right Anterosuperior Segment","SEND CT 2025-09-26"
"C79737","C74456",,"Anatomical Location","LIVER, RIGHT LOBE POSTEROINFERIOR SEGMENT","Couinaud Segment VI","The posterior segment of the right lobe of the liver, located inferiorly. (NCI)","Right Posteroinferior Segment","SEND CT 2025-09-26"
"C79738","C74456",,"Anatomical Location","LIVER, RIGHT LOBE POSTEROSUPERIOR SEGMENT","Couinaud Segment VII","The posterior segment of the right lobe of the liver, located superiorly. (NCI)","Right Posterosuperior Segment","SEND CT 2025-09-26"
"C33481","C74456",,"Anatomical Location","LIVER, RIGHT LOBE",,"The larger lobe of the liver extending into the right side of the body.","Right Lobe of the Liver","SEND CT 2025-09-26"
"C97333","C74456",,"Anatomical Location","LOCUS CERULEUS",,"A brainstem nucleus. It is the major brain site for the synthesis and secretion of norepinephrine. (NCI)","Locus Coeruleus","SEND CT 2025-09-26"
"C176234","C74456",,"Anatomical Location","LOWER GASTROINTESTINAL TRACT LYMPH NODE",,"A lymph node located in the lower gastrointestinal tract.","Lower Gastrointestinal Tract Lymph Node","SEND CT 2025-09-26"
"C132512","C74456",,"Anatomical Location","LOWER JUGULAR LYMPH NODE",,"Any lymph nodes located within close proximity to the lower third of the internal jugular vein, extending from the inferior border of the cricoid cartilage (superiorly) to the clavicle (inferiorly). The anterior (medial) boundary is the lateral border of the sternohyoid muscle and the posterior (lateral) boundary is the posterior border of the sternocleidomastoid muscle. (AJCC 8th ed.)","Lower Jugular Lymph Node Group (Level IV)","SEND CT 2025-09-26"
"C33012","C74456",,"Anatomical Location","LOWER RESPIRATORY SYSTEM",,"The part of the respiratory system below the bifurcation of the trachea. It includes the lungs and the parts of the lungs such as the bronchi, bronchioles and alveoli.","Lower Respiratory System","SEND CT 2025-09-26"
"C34004","C74456",,"Anatomical Location","LUMBAR REGION",,"The area of the body below the ribs and above the hipbones. (NCI)","Lumbar Region","SEND CT 2025-09-26"
"C69314","C74456",,"Anatomical Location","LUMBAR SPINE",,"The vertebrae located below the thoracic and above the sacral vertebrae.","Lumbar Spine","SEND CT 2025-09-26"
"C12744","C74456",,"Anatomical Location","LUMBAR VERTEBRA","Lumbar Vertebra","Any of the vertebrae situated between the thoracic vertebrae and the sacrum in the lower part of the spine.","Lumbar Vertebra","SEND CT 2025-09-26"
"C48824","C74456",,"Anatomical Location","LUMBOSACRAL SPINE","Lumbosacral Region","The part of the spine in the lower back that consists of the lumbar region and the sacrum.","Lumbosacral Region","SEND CT 2025-09-26"
"C186126","C74456",,"Anatomical Location","LUMBRICAL MUSCLES OF THE FOOT",,"A group of muscles in the sole of the foot that extend from the tendons of the flexor digitorum longus muscle to the medial bases of the proximal phalanges and the extensor expansion of the second through fifth digits; primary function is to flex and adduct the lateral four toes at the metatarsophalangeal joints and extend them at the interphalangeal joints.","Lumbrical Muscles of the Foot","SEND CT 2025-09-26"
"C150852","C74456",,"Anatomical Location","LUMBRICAL MUSCLES OF THE HAND",,"One of a group of four short muscles in the hand that extend from the radial and ulnar sides of the tendons of the flexor digitorum profundus to the radial lateral band of the extensor expansion tendon; primary function is extension of the proximal and distal interphalangeal joints.","Lumbrical Muscle","SEND CT 2025-09-26"
"C12786","C74456",,"Anatomical Location","LUNATE BONE","Lunate Bone","The bone in the proximal row of carpal bones that lies between the scaphoid and triquetral bones. (NCI)","Lunate Bone","SEND CT 2025-09-26"
"C34021","C74456",,"Anatomical Location","LUNG LOBE",,"Any of the large divisions of the lung.","Lung Lobe","SEND CT 2025-09-26"
"C12468","C74456",,"Anatomical Location","LUNG",,"A thoracic organ that has variable lobation and is the primary respiratory organ of mammals.","Lung","SEND CT 2025-09-26"
"C49282","C74456",,"Anatomical Location","LUNG, HILUM","Hilar Area of the Lung","The wedge-shaped area at the central portion of the lung through which the bronchi, vessels and nerves enter or exit the organ. (NCI)","Hilar Area of the Lung","SEND CT 2025-09-26"
"C33020","C74456",,"Anatomical Location","LUNG, LEFT LOWER LOBE","Lower Lobe of the Left Lung","The larger lobe of the left lung, situated below and behind the oblique fissure. (NCI)","Lower Lobe of the Left Lung","SEND CT 2025-09-26"
"C33021","C74456",,"Anatomical Location","LUNG, LEFT UPPER LOBE","Upper Lobe of the Left Lung","The smaller lobe of the left lung, situated above and in front the oblique fissure, which includes the apex. (NCI)","Upper Lobe of the Left Lung","SEND CT 2025-09-26"
"C32967","C74456",,"Anatomical Location","LUNG, LEFT","Left Lung","The 2-lobed lung located on the left side of the body. (NCI)","Left Lung","SEND CT 2025-09-26"
"C132393","C74456",,"Anatomical Location","LUNG, LEFT, INFERIOR LOBE, ANTERIOR BASAL SEGMENT",,"The anterior basal segment of the inferior lobe of the left lung.","Left Lung, Inferior Lobe, Anterior Basal Segment","SEND CT 2025-09-26"
"C132394","C74456",,"Anatomical Location","LUNG, LEFT, INFERIOR LOBE, LATERAL BASAL SEGMENT",,"The lateral basal segment of the inferior lobe of the left lung.","Left Lung, Inferior Lobe, Lateral Basal Segment","SEND CT 2025-09-26"
"C132395","C74456",,"Anatomical Location","LUNG, LEFT, INFERIOR LOBE, MEDIAL BASAL SEGMENT",,"The medial basal segment of the inferior lobe of the left lung.","Left Lung, Inferior Lobe, Medial Basal Segment","SEND CT 2025-09-26"
"C132396","C74456",,"Anatomical Location","LUNG, LEFT, INFERIOR LOBE, POSTERIOR BASAL SEGMENT",,"The posterior basal segment of the inferior lobe of the left lung.","Left Lung, Inferior Lobe, Posterior Basal Segment","SEND CT 2025-09-26"
"C132397","C74456",,"Anatomical Location","LUNG, LEFT, INFERIOR LOBE, SUPERIOR SEGMENT",,"The superior segment of the inferior lobe of the left lung.","Left Lung, Inferior Lobe, Superior Segment","SEND CT 2025-09-26"
"C132398","C74456",,"Anatomical Location","LUNG, LEFT, SUPERIOR LOBE, ANTERIOR SEGMENT",,"The anterior segment of the superior lobe of the left lung.","Left Lung, Superior Lobe, Anterior Segment","SEND CT 2025-09-26"
"C132399","C74456",,"Anatomical Location","LUNG, LEFT, SUPERIOR LOBE, APICOPOSTERIOR SEGMENT",,"The apicoposterior segment of the superior lobe of the left lung.","Left Lung, Superior Lobe, Apicoposterior Segment","SEND CT 2025-09-26"
"C132400","C74456",,"Anatomical Location","LUNG, LEFT, SUPERIOR LOBE, INFERIOR LINGULAR SEGMENT",,"The inferior lingular segment of the superior lobe of the left lung.","Left Lung, Superior Lobe, Inferior Lingular Segment","SEND CT 2025-09-26"
"C132401","C74456",,"Anatomical Location","LUNG, LEFT, SUPERIOR LOBE, SUPERIOR LINGULAR SEGMENT",,"The superior lingular segment of the superior lobe of the left lung.","Left Lung, Superior Lobe, Superior Lingular Segment","SEND CT 2025-09-26"
"C33022","C74456",,"Anatomical Location","LUNG, RIGHT LOWER LOBE","Lower Lobe of the Right Lung","The lobe of the right lung situated below the oblique fissure. (NCI)","Lower Lobe of the Right Lung","SEND CT 2025-09-26"
"C12286","C74456",,"Anatomical Location","LUNG, RIGHT MIDDLE LOBE","Middle Lobe of the Right Lung","The smallest lobe of the right lung, situated above the oblique fissure and below the horizontal fissure. (NCI)","Middle Lobe of the Right Lung","SEND CT 2025-09-26"
"C33023","C74456",,"Anatomical Location","LUNG, RIGHT UPPER LOBE","Upper Lobe of the Right Lung","The lobe of the right lung, situated above the horizontal fissure, which includes the apex. (NCI)","Upper Lobe of the Right Lung","SEND CT 2025-09-26"
"C33483","C74456",,"Anatomical Location","LUNG, RIGHT","Right Lung","The 3-lobed lung located on the right side of the body. (NCI)","Right Lung","SEND CT 2025-09-26"
"C132402","C74456",,"Anatomical Location","LUNG, RIGHT, INFERIOR LOBE, ANTERIOR BASAL SEGMENT",,"The anterior basal segment of the inferior lobe of the right lung.","Right Lung, Inferior Lobe, Anterior Basal Segment","SEND CT 2025-09-26"
"C132403","C74456",,"Anatomical Location","LUNG, RIGHT, INFERIOR LOBE, LATERAL BASAL SEGMENT",,"The lateral basal segment of the inferior lobe of the right lung.","Right Lung, Inferior Lobe, Lateral Basal Segment","SEND CT 2025-09-26"
"C132404","C74456",,"Anatomical Location","LUNG, RIGHT, INFERIOR LOBE, MEDIAL BASAL SEGMENT",,"The medial basal segment of the inferior lobe of the right lung.","Right Lung, Inferior Lobe, Medial Basal Segment","SEND CT 2025-09-26"
"C132405","C74456",,"Anatomical Location","LUNG, RIGHT, INFERIOR LOBE, POSTERIOR BASAL SEGMENT",,"The posterior basal segment of the inferior lobe of the right lung.","Right Lung, Inferior Lobe, Posterior Basal Segment","SEND CT 2025-09-26"
"C132406","C74456",,"Anatomical Location","LUNG, RIGHT, INFERIOR LOBE, SUPERIOR SEGMENT",,"The superior segment of the inferior lobe of the right lung.","Right Lung, Inferior Lobe, Superior Segment","SEND CT 2025-09-26"
"C132407","C74456",,"Anatomical Location","LUNG, RIGHT, MIDDLE LOBE, LATERAL SEGMENT",,"The lateral segment of the middle lobe of the right lung.","Right Lung, Middle Lobe, Lateral Segment","SEND CT 2025-09-26"
"C132408","C74456",,"Anatomical Location","LUNG, RIGHT, MIDDLE LOBE, MEDIAL SEGMENT",,"The medial segment of the middle lobe of the right lung.","Right Lung, Middle Lobe, Medial Segment","SEND CT 2025-09-26"
"C132409","C74456",,"Anatomical Location","LUNG, RIGHT, SUPERIOR LOBE, ANTERIOR SEGMENT",,"The anterior segment of the superior lobe of the right lung.","Right Lung, Superior Lobe, Anterior Segment","SEND CT 2025-09-26"
"C132410","C74456",,"Anatomical Location","LUNG, RIGHT, SUPERIOR LOBE, APICAL SEGMENT",,"The apical segment of the superior lobe of the right lung.","Right Lung, Superior Lobe, Apical Segment","SEND CT 2025-09-26"
"C132411","C74456",,"Anatomical Location","LUNG, RIGHT, SUPERIOR LOBE, POSTERIOR SEGMENT",,"The posterior segment of the superior lobe of the right lung.","Right Lung, Superior Lobe, Posterior Segment","SEND CT 2025-09-26"
"C33031","C74456",,"Anatomical Location","LYMPH NODE HILUM","Lymph Node Hilum","The concave side of the lymph node. (NCI)","Lymph Node Hilum","SEND CT 2025-09-26"
"C12745","C74456",,"Anatomical Location","LYMPH NODE","Lymphatic Gland","Secondary lymphoid organ associated with lymphatic vessels and consisting of an outer cortex, inner medulla and sinuses.","Lymph Node","SEND CT 2025-09-26"
"C26464","C74456",,"Anatomical Location","MACULA",,"An oval-shaped, yellow pigmented area located on the center of the retina, which contains a high density of cones for high-acuity vision.","Macula","SEND CT 2025-09-26"
"C32968","C74456",,"Anatomical Location","MAIN BRONCHUS, LEFT","Left Main Bronchus","One of the two main bronchi. It is narrower but longer than the right main bronchus and connects to the left lung. (NCI)","Left Main Bronchus","SEND CT 2025-09-26"
"C33486","C74456",,"Anatomical Location","MAIN BRONCHUS, RIGHT","Right Main Bronchus","One of the two main bronchi. It is wider but shorter than the left main bronchus and connects to the right lung. (NCI)","Right Main Bronchus","SEND CT 2025-09-26"
"C61599","C74456",,"Anatomical Location","MALE GENITALIA","Male Genitalia","Male internal and external organs of reproduction.","Male Genitalia","SEND CT 2025-09-26"
"C12722","C74456",,"Anatomical Location","MALE REPRODUCTIVE SYSTEM",,"The sex organs of the male.","Male Reproductive System","SEND CT 2025-09-26"
"C33051","C74456",,"Anatomical Location","MALLEUS","Malleus","A hammer-shaped bone, part of three interconnected small bones located in the middle ear. It is attached to the inner surface of the tympanic membrane and its function is to transmit sound vibrations. (NCI)","Malleus","SEND CT 2025-09-26"
"C12367","C74456",,"Anatomical Location","MAMMARY GLAND",,"The exocrine glands of the mammae that produce milk in females, and are composed of lobules, alveolar ducts and alveoli.","Mammary Gland","SEND CT 2025-09-26"
"C12290","C74456",,"Anatomical Location","MANDIBLE","Bone, Mandibular; Inferior Maxillary Bone; Lower Jaw; Mandible","The lower jaw bone holding the lower teeth. (NCI)","Mandible","SEND CT 2025-09-26"
"C13074","C74456",,"Anatomical Location","MASSETER MUSCLE",,"A muscle extending from the zygomatic arch to the lateral surface of mandibular ramus; primary function is elevation of the mandible (closing of the mouth).","Masseter Muscle","SEND CT 2025-09-26"
"C12503","C74456",,"Anatomical Location","MASTOID PROCESS","Mastoid Process","A honeycombed section of bone located near the base of the skull, protruding behind the outer ear. It is connected to the middle ear. (NCI)","Mastoid Process","SEND CT 2025-09-26"
"C26470","C74456",,"Anatomical Location","MAXILLA",,"The upper jaw bone holding the upper teeth.","Maxilla","SEND CT 2025-09-26"
"C12275","C74456",,"Anatomical Location","MAXILLARY SINUS","Maxillary Sinus","A pyramidal-shaped, thin-walled, air-filled cavity located in the maxilla. It is lined by mucus membrane and periosteum (mucoperiosteum) which contains cilia. It is adjacent to the nasal cavity and communicates with the middle meatus of the nose. It is the largest paranasal sinus and is composed of three recesses: alveolar, zygomatic, and infraorbital. (NCI)","Maxillary Sinus","SEND CT 2025-09-26"
"C201432","C74456",,"Anatomical Location","MECKELS CAVE",,"An opening in the medial portion of the middle cranial fossa through which the trigeminal nerve passes.","Trigeminal Cave","SEND CT 2025-09-26"
"C139204","C74456",,"Anatomical Location","MEDIAL FEMORAL CONDYLE",,"A rounded, bony projection on the inner side of the distal end of the femur to which the medial collateral and the posterior cruciate ligaments are attached.","Medial Femoral Condyle","SEND CT 2025-09-26"
"C139164","C74456",,"Anatomical Location","MEDIAL NASAL TURBINATE","Media Nasal Concha; Nasal Middle Turbinate","The largest of the ethmoidal nasal turbinates in some species, extending from the ethmoidal crest into the middle of the nasal cavity.","Medial Nasal Turbinate","SEND CT 2025-09-26"
"C33070","C74456",,"Anatomical Location","MEDIAN BASILIC VEIN","Median Cubital Vein","A vein between the biceps and pronator radii teres muscles that unites with the common ulnar vein to form the basilic vein within the forearm.","Median Basilic Vein","SEND CT 2025-09-26"
"C52815","C74456",,"Anatomical Location","MEDIAN NERVE",,"A nerve extending from the brachial plexus traveling the length of the arm/thoracic limb, which innervates some flexor muscles of the arm/forelimb and the skin on the palmar aspect of the carpus, metacarpus and digits.","Median Nerve","SEND CT 2025-09-26"
"C103417","C74456",,"Anatomical Location","MEDIAN OR LOWER CERVICAL LYMPH NODE",,"A lymph node located in the median or lower region of the neck. (NCI)","Median Or Lower Cervical Lymph Node","SEND CT 2025-09-26"
"C33073","C74456",,"Anatomical Location","MEDIASTINAL LYMPH NODE",,"Lymph node(s) in the mediastinal region.","Mediastinal Lymph Node","SEND CT 2025-09-26"
"C164004","C74456",,"Anatomical Location","MEDIASTINAL SOFT TISSUE",,"The soft tissue of the mediastinum.","Mediastinal Soft Tissue","SEND CT 2025-09-26"
"C12748","C74456",,"Anatomical Location","MEDIASTINUM",,"The central region of the thoracic cavity of mammals containing a group of organs surrounded by loose connective tissue, which separates the two pleural sacs.","Mediastinum","SEND CT 2025-09-26"
"C32098","C74456",,"Anatomical Location","MEDIASTINUM, ANTERIOR","Anterior Mediastinum","The area between the lungs; it contains the thymus, some lymph nodes, and vessels and branches of the internal thoracic artery. (NCI)","Anterior Mediastinum","SEND CT 2025-09-26"
"C33123","C74456",,"Anatomical Location","MEDIASTINUM, MIDDLE","Middle Mediastinum","The broadest part of the lower portion of the mediastinum. It contains the heart and the great vessels. (NCI)","Middle Mediastinum","SEND CT 2025-09-26"
"C33368","C74456",,"Anatomical Location","MEDIASTINUM, POSTERIOR","Posterior Mediastinum","The part of the lower portion of the mediastinum that is located behind the pericardium. (NCI)","Posterior Mediastinum","SEND CT 2025-09-26"
"C33684","C74456",,"Anatomical Location","MEDIASTINUM, SUPERIOR","Superior Mediastinum","The part of the mediastinum that is located between the upper part of the sternum in the front and the upper thoracic vertebrae in the back. (NCI)","Superior Mediastinum","SEND CT 2025-09-26"
"C12442","C74456",,"Anatomical Location","MEDULLA OBLONGATA",,"The portion of the brainstem between the pons and cervical spinal cord.","Medulla Oblongata","SEND CT 2025-09-26"
"C12348","C74456",,"Anatomical Location","MENINGES",,"Any one of three membranes that surround the brain and spinal cord. (NCI)","Meninges","SEND CT 2025-09-26"
"C186127","C74456",,"Anatomical Location","MENTALIS MUSCLE",,"A muscle of the jaw, in general extending from the incisive fossa of the mandible to the skin of the lower lip; primary function is to elevate and protrude the lower lip and elevate the skin of the chin.","Mentalis Muscle","SEND CT 2025-09-26"
"C52975","C74456",,"Anatomical Location","MESENTERIC ARTERY",,"One of the arteries of the abdomen; in general it arises from the abdominal aorta and supplies blood mainly to the intestines.","Mesenteric Artery","SEND CT 2025-09-26"
"C77641","C74456",,"Anatomical Location","MESENTERIC LYMPH NODE",,"Lymph node(s) in or adjacent to the mesentery.","Mesenteric Lymph Node","SEND CT 2025-09-26"
"C53055","C74456",,"Anatomical Location","MESENTERIC VEIN",,"A vein of the abdomen; in general it arises from the intestines and pancreas, combines with the splenic vein, and drains into the portal vein.","Mesenteric Vein","SEND CT 2025-09-26"
"C33103","C74456",,"Anatomical Location","MESENTERY",,"A double layer of peritoneum that attaches to the wall of the abdominal cavity and supports the small intestines.","Mesentery","SEND CT 2025-09-26"
"C33105","C74456",,"Anatomical Location","MESOTHELIUM",,"A simple layer of cells, derived from the mesoderm, that covers the serous membranes including the peritoneum, pericardium, and pleura.","Mesothelium","SEND CT 2025-09-26"
"C127667","C74456",,"Anatomical Location","METACARPAL 1 BASE",,"The proximal end of the first metacarpal bone.","Metacarpal 1 Base","SEND CT 2025-09-26"
