<?xml version="1.0" encoding="UTF-8"?>
<!-- Dataset-XML: Untyped Data Example  --> 
<!-- Built from the SAS XPT files published with the SDTM-MSG (SDTM Metadata Submission Guidelines) V2.0 --> 
<ODM
  xmlns="http://www.cdisc.org/ns/odm/v1.3"
  xmlns:xlink="http://www.w3.org/1999/xlink" 
  xmlns:data="http://www.cdisc.org/ns/Dataset-XML/v1.0"
  FileType="Snapshot"
  ODMVersion="1.3.2"
  data:DatasetXMLVersion="1.0.0"
  FileOID="www.cdisc.org/StudyMSGv2/1/Define-XML_2.1.0(IG.EC).Data(EC)"
  PriorFileOID="www.cdisc.org/StudyMSGv2/1/Define-XML_2.1.0"
  CreationDateTime="2020-08-21T09:21:13"
  Originator="CDISC MSG Team"
  SourceSystem="M.Hungria-System"
  SourceSystemVersion="2.1-A1"
  >
  <ClinicalData
    StudyOID="cdisc.com/CDISCPILOT01"
    MetaDataVersionOID="MDV.MSGv2.0.SDTMIG.3.3.SDTM.1.7">
    <!-- Dataset (EC) -->
    <ItemGroupData ItemGroupOID="IG.EC" data:ItemGroupDataSeq="1">
      <ItemData ItemOID="IT.EC.STUDYID" Value="CDISCPILOT01"/>
      <ItemData ItemOID="IT.EC.DOMAIN" Value="EC"/>
      <ItemData ItemOID="IT.EC.USUBJID" Value="CDISC001"/>
      <ItemData ItemOID="IT.EC.SPDEVID" Value="DEV0001"/>
      <ItemData ItemOID="IT.EC.ECSEQ" Value="1"/>
      <ItemData ItemOID="IT.EC.ECTRT" Value="ZANOMALINE"/>
      <ItemData ItemOID="IT.EC.ECPRESP" Value="Y"/>
      <ItemData ItemOID="IT.EC.ECOCCUR" Value="Y"/>
      <ItemData ItemOID="IT.EC.ECDOSE" Value="5"/>
      <ItemData ItemOID="IT.EC.ECDOSU" Value="mL"/>
      <ItemData ItemOID="IT.EC.ECDOSFRM" Value="INJECTION"/>
      <ItemData ItemOID="IT.EC.ECDOSFRQ" Value="QD"/>
      <ItemData ItemOID="IT.EC.ECROUTE" Value="SUBCUTANEOUS"/>
      <ItemData ItemOID="IT.EC.ECLOT" Value="SDS580-359"/>
      <ItemData ItemOID="IT.EC.ECPSTRG" Value="10.8"/>
      <ItemData ItemOID="IT.EC.ECPSTRGU" Value="g/L"/>
      <ItemData ItemOID="IT.EC.EPOCH" Value="TREATMENT"/>
      <ItemData ItemOID="IT.EC.ECSTDTC" Value="2012-11-30"/>
      <ItemData ItemOID="IT.EC.ECENDTC" Value="2012-11-30"/>
      <ItemData ItemOID="IT.EC.ECSTDY" Value="1"/>
      <ItemData ItemOID="IT.EC.ECENDY" Value="1"/>
    </ItemGroupData>
    <ItemGroupData ItemGroupOID="IG.EC" data:ItemGroupDataSeq="2">
      <ItemData ItemOID="IT.EC.STUDYID" Value="CDISCPILOT01"/>
      <ItemData ItemOID="IT.EC.DOMAIN" Value="EC"/>
      <ItemData ItemOID="IT.EC.USUBJID" Value="CDISC001"/>
      <ItemData ItemOID="IT.EC.SPDEVID" Value="DEV0001"/>
      <ItemData ItemOID="IT.EC.ECSEQ" Value="2"/>
      <ItemData ItemOID="IT.EC.ECTRT" Value="ZANOMALINE"/>
      <ItemData ItemOID="IT.EC.ECPRESP" Value="Y"/>
      <ItemData ItemOID="IT.EC.ECOCCUR" Value="Y"/>
      <ItemData ItemOID="IT.EC.ECDOSE" Value="5"/>
      <ItemData ItemOID="IT.EC.ECDOSU" Value="mL"/>
      <ItemData ItemOID="IT.EC.ECDOSFRM" Value="INJECTION"/>
      <ItemData ItemOID="IT.EC.ECDOSFRQ" Value="QD"/>
      <ItemData ItemOID="IT.EC.ECROUTE" Value="SUBCUTANEOUS"/>
      <ItemData ItemOID="IT.EC.ECLOT" Value="SDS580-359"/>
      <ItemData ItemOID="IT.EC.ECPSTRG" Value="10.8"/>
      <ItemData ItemOID="IT.EC.ECPSTRGU" Value="g/L"/>
      <ItemData ItemOID="IT.EC.EPOCH" Value="TREATMENT"/>
      <ItemData ItemOID="IT.EC.ECSTDTC" Value="2012-12-01"/>
      <ItemData ItemOID="IT.EC.ECENDTC" Value="2012-12-01"/>
      <ItemData ItemOID="IT.EC.ECSTDY" Value="2"/>
      <ItemData ItemOID="IT.EC.ECENDY" Value="2"/>
    </ItemGroupData>
    <ItemGroupData ItemGroupOID="IG.EC" data:ItemGroupDataSeq="3">
      <ItemData ItemOID="IT.EC.STUDYID" Value="CDISCPILOT01"/>
      <ItemData ItemOID="IT.EC.DOMAIN" Value="EC"/>
      <ItemData ItemOID="IT.EC.USUBJID" Value="CDISC001"/>
      <ItemData ItemOID="IT.EC.SPDEVID" Value="DEV0001"/>
      <ItemData ItemOID="IT.EC.ECSEQ" Value="3"/>
      <ItemData ItemOID="IT.EC.ECTRT" Value="ZANOMALINE"/>
      <ItemData ItemOID="IT.EC.ECPRESP" Value="Y"/>
      <ItemData ItemOID="IT.EC.ECOCCUR" Value="Y"/>
      <ItemData ItemOID="IT.EC.ECDOSE" Value="5"/>
      <ItemData ItemOID="IT.EC.ECDOSU" Value="mL"/>
      <ItemData ItemOID="IT.EC.ECDOSFRM" Value="INJECTION"/>
      <ItemData ItemOID="IT.EC.ECDOSFRQ" Value="QD"/>
      <ItemData ItemOID="IT.EC.ECROUTE" Value="SUBCUTANEOUS"/>
      <ItemData ItemOID="IT.EC.ECLOT" Value="SDS580-359"/>
      <ItemData ItemOID="IT.EC.ECPSTRG" Value="10.8"/>
      <ItemData ItemOID="IT.EC.ECPSTRGU" Value="g/L"/>
      <ItemData ItemOID="IT.EC.EPOCH" Value="TREATMENT"/>
      <ItemData ItemOID="IT.EC.ECSTDTC" Value="2012-12-02"/>
      <ItemData ItemOID="IT.EC.ECENDTC" Value="2012-12-02"/>
      <ItemData ItemOID="IT.EC.ECSTDY" Value="3"/>
      <ItemData ItemOID="IT.EC.ECENDY" Value="3"/>
    </ItemGroupData>
    <ItemGroupData ItemGroupOID="IG.EC" data:ItemGroupDataSeq="4">
      <ItemData ItemOID="IT.EC.STUDYID" Value="CDISCPILOT01"/>
      <ItemData ItemOID="IT.EC.DOMAIN" Value="EC"/>
      <ItemData ItemOID="IT.EC.USUBJID" Value="CDISC001"/>
      <ItemData ItemOID="IT.EC.SPDEVID" Value="DEV0001"/>
      <ItemData ItemOID="IT.EC.ECSEQ" Value="4"/>
      <ItemData ItemOID="IT.EC.ECTRT" Value="ZANOMALINE"/>
      <ItemData ItemOID="IT.EC.ECPRESP" Value="Y"/>
      <ItemData ItemOID="IT.EC.ECOCCUR" Value="Y"/>
      <ItemData ItemOID="IT.EC.ECDOSE" Value="5"/>
      <ItemData ItemOID="IT.EC.ECDOSU" Value="mL"/>
      <ItemData ItemOID="IT.EC.ECDOSFRM" Value="INJECTION"/>
      <ItemData ItemOID="IT.EC.ECDOSFRQ" Value="QD"/>
      <ItemData ItemOID="IT.EC.ECROUTE" Value="SUBCUTANEOUS"/>
      <ItemData ItemOID="IT.EC.ECLOT" Value="SDS580-359"/>
      <ItemData ItemOID="IT.EC.ECPSTRG" Value="10.8"/>
      <ItemData ItemOID="IT.EC.ECPSTRGU" Value="g/L"/>
      <ItemData ItemOID="IT.EC.EPOCH" Value="TREATMENT"/>
      <ItemData ItemOID="IT.EC.ECSTDTC" Value="2012-12-03"/>
      <ItemData ItemOID="IT.EC.ECENDTC" Value="2012-12-03"/>
      <ItemData ItemOID="IT.EC.ECSTDY" Value="4"/>
      <ItemData ItemOID="IT.EC.ECENDY" Value="4"/>
    </ItemGroupData>
    <ItemGroupData ItemGroupOID="IG.EC" data:ItemGroupDataSeq="5">
      <ItemData ItemOID="IT.EC.STUDYID" Value="CDISCPILOT01"/>
      <ItemData ItemOID="IT.EC.DOMAIN" Value="EC"/>
      <ItemData ItemOID="IT.EC.USUBJID" Value="CDISC001"/>
      <ItemData ItemOID="IT.EC.SPDEVID" Value="DEV0001"/>
      <ItemData ItemOID="IT.EC.ECSEQ" Value="5"/>
      <ItemData ItemOID="IT.EC.ECTRT" Value="ZANOMALINE"/>
      <ItemData ItemOID="IT.EC.ECPRESP" Value="Y"/>
      <ItemData ItemOID="IT.EC.ECOCCUR" Value="Y"/>
      <ItemData ItemOID="IT.EC.ECDOSE" Value="5"/>
      <ItemData ItemOID="IT.EC.ECDOSU" Value="mL"/>
      <ItemData ItemOID="IT.EC.ECDOSFRM" Value="INJECTION"/>
      <ItemData ItemOID="IT.EC.ECDOSFRQ" Value="QD"/>
      <ItemData ItemOID="IT.EC.ECROUTE" Value="SUBCUTANEOUS"/>
      <ItemData ItemOID="IT.EC.ECLOT" Value="SDS580-359"/>
      <ItemData ItemOID="IT.EC.ECPSTRG" Value="10.8"/>
      <ItemData ItemOID="IT.EC.ECPSTRGU" Value="g/L"/>
      <ItemData ItemOID="IT.EC.EPOCH" Value="TREATMENT"/>
      <ItemData ItemOID="IT.EC.ECSTDTC" Value="2012-12-04"/>
      <ItemData ItemOID="IT.EC.ECENDTC" Value="2012-12-04"/>
      <ItemData ItemOID="IT.EC.ECSTDY" Value="5"/>
      <ItemData ItemOID="IT.EC.ECENDY" Value="5"/>
    </ItemGroupData>
    <ItemGroupData ItemGroupOID="IG.EC" data:ItemGroupDataSeq="6">
      <ItemData ItemOID="IT.EC.STUDYID" Value="CDISCPILOT01"/>
      <ItemData ItemOID="IT.EC.DOMAIN" Value="EC"/>
      <ItemData ItemOID="IT.EC.USUBJID" Value="CDISC001"/>
      <ItemData ItemOID="IT.EC.SPDEVID" Value="DEV0001"/>
      <ItemData ItemOID="IT.EC.ECSEQ" Value="6"/>
      <ItemData ItemOID="IT.EC.ECTRT" Value="ZANOMALINE"/>
      <ItemData ItemOID="IT.EC.ECPRESP" Value="Y"/>
      <ItemData ItemOID="IT.EC.ECOCCUR" Value="Y"/>
      <ItemData ItemOID="IT.EC.ECDOSE" Value="5"/>
      <ItemData ItemOID="IT.EC.ECDOSU" Value="mL"/>
      <ItemData ItemOID="IT.EC.ECDOSFRM" Value="INJECTION"/>
      <ItemData ItemOID="IT.EC.ECDOSFRQ" Value="QD"/>
      <ItemData ItemOID="IT.EC.ECROUTE" Value="SUBCUTANEOUS"/>
      <ItemData ItemOID="IT.EC.ECLOT" Value="SDS580-359"/>
      <ItemData ItemOID="IT.EC.ECPSTRG" Value="10.8"/>
      <ItemData ItemOID="IT.EC.ECPSTRGU" Value="g/L"/>
      <ItemData ItemOID="IT.EC.EPOCH" Value="TREATMENT"/>
      <ItemData ItemOID="IT.EC.ECSTDTC" Value="2012-12-05"/>
      <ItemData ItemOID="IT.EC.ECENDTC" Value="2012-12-05"/>
      <ItemData ItemOID="IT.EC.ECSTDY" Value="6"/>
      <ItemData ItemOID="IT.EC.ECENDY" Value="6"/>
    </ItemGroupData>
    <ItemGroupData ItemGroupOID="IG.EC" data:ItemGroupDataSeq="7">
      <ItemData ItemOID="IT.EC.STUDYID" Value="CDISCPILOT01"/>
      <ItemData ItemOID="IT.EC.DOMAIN" Value="EC"/>
      <ItemData ItemOID="IT.EC.USUBJID" Value="CDISC001"/>
      <ItemData ItemOID="IT.EC.SPDEVID" Value="DEV0001"/>
      <ItemData ItemOID="IT.EC.ECSEQ" Value="7"/>
      <ItemData ItemOID="IT.EC.ECTRT" Value="ZANOMALINE"/>
      <ItemData ItemOID="IT.EC.ECPRESP" Value="Y"/>
      <ItemData ItemOID="IT.EC.ECOCCUR" Value="Y"/>
      <ItemData ItemOID="IT.EC.ECDOSE" Value="5"/>
      <ItemData ItemOID="IT.EC.ECDOSU" Value="mL"/>
      <ItemData ItemOID="IT.EC.ECDOSFRM" Value="INJECTION"/>
      <ItemData ItemOID="IT.EC.ECDOSFRQ" Value="QD"/>
      <ItemData ItemOID="IT.EC.ECROUTE" Value="SUBCUTANEOUS"/>
      <ItemData ItemOID="IT.EC.ECLOT" Value="SDS580-359"/>
      <ItemData ItemOID="IT.EC.ECPSTRG" Value="10.8"/>
      <ItemData ItemOID="IT.EC.ECPSTRGU" Value="g/L"/>
      <ItemData ItemOID="IT.EC.EPOCH" Value="TREATMENT"/>
      <ItemData ItemOID="IT.EC.ECSTDTC" Value="2012-12-06"/>
      <ItemData ItemOID="IT.EC.ECENDTC" Value="2012-12-06"/>
      <ItemData ItemOID="IT.EC.ECSTDY" Value="7"/>
      <ItemData ItemOID="IT.EC.ECENDY" Value="7"/>
    </ItemGroupData>
    <ItemGroupData ItemGroupOID="IG.EC" data:ItemGroupDataSeq="8">
      <ItemData ItemOID="IT.EC.STUDYID" Value="CDISCPILOT01"/>
      <ItemData ItemOID="IT.EC.DOMAIN" Value="EC"/>
      <ItemData ItemOID="IT.EC.USUBJID" Value="CDISC001"/>
      <ItemData ItemOID="IT.EC.SPDEVID" Value="DEV0001"/>
      <ItemData ItemOID="IT.EC.ECSEQ" Value="8"/>
      <ItemData ItemOID="IT.EC.ECTRT" Value="ZANOMALINE"/>
      <ItemData ItemOID="IT.EC.ECPRESP" Value="Y"/>
      <ItemData ItemOID="IT.EC.ECOCCUR" Value="Y"/>
      <ItemData ItemOID="IT.EC.ECDOSE" Value="5"/>
      <ItemData ItemOID="IT.EC.ECDOSU" Value="mL"/>
      <ItemData ItemOID="IT.EC.ECDOSFRM" Value="INJECTION"/>
      <ItemData ItemOID="IT.EC.ECDOSFRQ" Value="QD"/>
      <ItemData ItemOID="IT.EC.ECROUTE" Value="SUBCUTANEOUS"/>
      <ItemData ItemOID="IT.EC.ECLOT" Value="SDS580-359"/>
      <ItemData ItemOID="IT.EC.ECPSTRG" Value="10.8"/>
      <ItemData ItemOID="IT.EC.ECPSTRGU" Value="g/L"/>
      <ItemData ItemOID="IT.EC.EPOCH" Value="TREATMENT"/>
      <ItemData ItemOID="IT.EC.ECSTDTC" Value="2012-12-07"/>
      <ItemData ItemOID="IT.EC.ECENDTC" Value="2012-12-07"/>
      <ItemData ItemOID="IT.EC.ECSTDY" Value="8"/>
      <ItemData ItemOID="IT.EC.ECENDY" Value="8"/>
    </ItemGroupData>
    <ItemGroupData ItemGroupOID="IG.EC" data:ItemGroupDataSeq="9">
      <ItemData ItemOID="IT.EC.STUDYID" Value="CDISCPILOT01"/>
      <ItemData ItemOID="IT.EC.DOMAIN" Value="EC"/>
      <ItemData ItemOID="IT.EC.USUBJID" Value="CDISC001"/>
      <ItemData ItemOID="IT.EC.SPDEVID" Value="DEV0001"/>
      <ItemData ItemOID="IT.EC.ECSEQ" Value="9"/>
      <ItemData ItemOID="IT.EC.ECTRT" Value="ZANOMALINE"/>
      <ItemData ItemOID="IT.EC.ECPRESP" Value="Y"/>
      <ItemData ItemOID="IT.EC.ECOCCUR" Value="Y"/>
      <ItemData ItemOID="IT.EC.ECDOSE" Value="5"/>
      <ItemData ItemOID="IT.EC.ECDOSU" Value="mL"/>
      <ItemData ItemOID="IT.EC.ECDOSFRM" Value="INJECTION"/>
      <ItemData ItemOID="IT.EC.ECDOSFRQ" Value="QD"/>
      <ItemData ItemOID="IT.EC.ECROUTE" Value="SUBCUTANEOUS"/>
      <ItemData ItemOID="IT.EC.ECLOT" Value="SDS580-359"/>
      <ItemData ItemOID="IT.EC.ECPSTRG" Value="10.8"/>
      <ItemData ItemOID="IT.EC.ECPSTRGU" Value="g/L"/>
      <ItemData ItemOID="IT.EC.EPOCH" Value="TREATMENT"/>
      <ItemData ItemOID="IT.EC.ECSTDTC" Value="2012-12-08"/>
      <ItemData ItemOID="IT.EC.ECENDTC" Value="2012-12-08"/>
      <ItemData ItemOID="IT.EC.ECSTDY" Value="9"/>
      <ItemData ItemOID="IT.EC.ECENDY" Value="9"/>
    </ItemGroupData>
    <ItemGroupData ItemGroupOID="IG.EC" data:ItemGroupDataSeq="10">
      <ItemData ItemOID="IT.EC.STUDYID" Value="CDISCPILOT01"/>
      <ItemData ItemOID="IT.EC.DOMAIN" Value="EC"/>
      <ItemData ItemOID="IT.EC.USUBJID" Value="CDISC001"/>
      <ItemData ItemOID="IT.EC.SPDEVID" Value="DEV0001"/>
      <ItemData ItemOID="IT.EC.ECSEQ" Value="10"/>
      <ItemData ItemOID="IT.EC.ECTRT" Value="ZANOMALINE"/>
      <ItemData ItemOID="IT.EC.ECPRESP" Value="Y"/>
      <ItemData ItemOID="IT.EC.ECOCCUR" Value="Y"/>
      <ItemData ItemOID="IT.EC.ECDOSE" Value="5"/>
      <ItemData ItemOID="IT.EC.ECDOSU" Value="mL"/>
      <ItemData ItemOID="IT.EC.ECDOSFRM" Value="INJECTION"/>
      <ItemData ItemOID="IT.EC.ECDOSFRQ" Value="QD"/>
      <ItemData ItemOID="IT.EC.ECROUTE" Value="SUBCUTANEOUS"/>
      <ItemData ItemOID="IT.EC.ECLOT" Value="SDS580-359"/>
      <ItemData ItemOID="IT.EC.ECPSTRG" Value="10.8"/>
      <ItemData ItemOID="IT.EC.ECPSTRGU" Value="g/L"/>
      <ItemData ItemOID="IT.EC.EPOCH" Value="TREATMENT"/>
      <ItemData ItemOID="IT.EC.ECSTDTC" Value="2012-12-09"/>
      <ItemData ItemOID="IT.EC.ECENDTC" Value="2012-12-09"/>
      <ItemData ItemOID="IT.EC.ECSTDY" Value="10"/>
      <ItemData ItemOID="IT.EC.ECENDY" Value="10"/>
    </ItemGroupData>
    <ItemGroupData ItemGroupOID="IG.EC" data:ItemGroupDataSeq="11">
      <ItemData ItemOID="IT.EC.STUDYID" Value="CDISCPILOT01"/>
      <ItemData ItemOID="IT.EC.DOMAIN" Value="EC"/>
      <ItemData ItemOID="IT.EC.USUBJID" Value="CDISC001"/>
      <ItemData ItemOID="IT.EC.SPDEVID" Value="DEV0001"/>
      <ItemData ItemOID="IT.EC.ECSEQ" Value="11"/>
      <ItemData ItemOID="IT.EC.ECTRT" Value="ZANOMALINE"/>
      <ItemData ItemOID="IT.EC.ECPRESP" Value="Y"/>
      <ItemData ItemOID="IT.EC.ECOCCUR" Value="Y"/>
      <ItemData ItemOID="IT.EC.ECDOSE" Value="5"/>
      <ItemData ItemOID="IT.EC.ECDOSU" Value="mL"/>
      <ItemData ItemOID="IT.EC.ECDOSFRM" Value="INJECTION"/>
      <ItemData ItemOID="IT.EC.ECDOSFRQ" Value="QD"/>
      <ItemData ItemOID="IT.EC.ECROUTE" Value="SUBCUTANEOUS"/>
      <ItemData ItemOID="IT.EC.ECLOT" Value="SDS580-359"/>
      <ItemData ItemOID="IT.EC.ECPSTRG" Value="10.8"/>
      <ItemData ItemOID="IT.EC.ECPSTRGU" Value="g/L"/>
      <ItemData ItemOID="IT.EC.EPOCH" Value="TREATMENT"/>
      <ItemData ItemOID="IT.EC.ECSTDTC" Value="2012-12-10"/>
      <ItemData ItemOID="IT.EC.ECENDTC" Value="2012-12-10"/>
      <ItemData ItemOID="IT.EC.ECSTDY" Value="11"/>
      <ItemData ItemOID="IT.EC.ECENDY" Value="11"/>
    </ItemGroupData>
    <ItemGroupData ItemGroupOID="IG.EC" data:ItemGroupDataSeq="12">
      <ItemData ItemOID="IT.EC.STUDYID" Value="CDISCPILOT01"/>
      <ItemData ItemOID="IT.EC.DOMAIN" Value="EC"/>
      <ItemData ItemOID="IT.EC.USUBJID" Value="CDISC001"/>
      <ItemData ItemOID="IT.EC.SPDEVID" Value="DEV0001"/>
      <ItemData ItemOID="IT.EC.ECSEQ" Value="12"/>
      <ItemData ItemOID="IT.EC.ECTRT" Value="ZANOMALINE"/>
      <ItemData ItemOID="IT.EC.ECPRESP" Value="Y"/>
      <ItemData ItemOID="IT.EC.ECOCCUR" Value="Y"/>
      <ItemData ItemOID="IT.EC.ECDOSE" Value="5"/>
      <ItemData ItemOID="IT.EC.ECDOSU" Value="mL"/>
      <ItemData ItemOID="IT.EC.ECDOSFRM" Value="INJECTION"/>
      <ItemData ItemOID="IT.EC.ECDOSFRQ" Value="QD"/>
      <ItemData ItemOID="IT.EC.ECROUTE" Value="SUBCUTANEOUS"/>
      <ItemData ItemOID="IT.EC.ECLOT" Value="SDS580-359"/>
      <ItemData ItemOID="IT.EC.ECPSTRG" Value="10.8"/>
      <ItemData ItemOID="IT.EC.ECPSTRGU" Value="g/L"/>
      <ItemData ItemOID="IT.EC.EPOCH" Value="TREATMENT"/>
      <ItemData ItemOID="IT.EC.ECSTDTC" Value="2012-12-11"/>
      <ItemData ItemOID="IT.EC.ECENDTC" Value="2012-12-11"/>
      <ItemData ItemOID="IT.EC.ECSTDY" Value="12"/>
      <ItemData ItemOID="IT.EC.ECENDY" Value="12"/>
    </ItemGroupData>
    <ItemGroupData ItemGroupOID="IG.EC" data:ItemGroupDataSeq="13">
      <ItemData ItemOID="IT.EC.STUDYID" Value="CDISCPILOT01"/>
      <ItemData ItemOID="IT.EC.DOMAIN" Value="EC"/>
      <ItemData ItemOID="IT.EC.USUBJID" Value="CDISC001"/>
      <ItemData ItemOID="IT.EC.SPDEVID" Value="DEV0001"/>
      <ItemData ItemOID="IT.EC.ECSEQ" Value="13"/>
      <ItemData ItemOID="IT.EC.ECTRT" Value="ZANOMALINE"/>
      <ItemData ItemOID="IT.EC.ECPRESP" Value="Y"/>
      <ItemData ItemOID="IT.EC.ECOCCUR" Value="Y"/>
      <ItemData ItemOID="IT.EC.ECDOSE" Value="5"/>
      <ItemData ItemOID="IT.EC.ECDOSU" Value="mL"/>
      <ItemData ItemOID="IT.EC.ECDOSFRM" Value="INJECTION"/>
      <ItemData ItemOID="IT.EC.ECDOSFRQ" Value="QD"/>
      <ItemData ItemOID="IT.EC.ECROUTE" Value="SUBCUTANEOUS"/>
      <ItemData ItemOID="IT.EC.ECLOT" Value="SDS580-359"/>
      <ItemData ItemOID="IT.EC.ECPSTRG" Value="10.8"/>
      <ItemData ItemOID="IT.EC.ECPSTRGU" Value="g/L"/>
      <ItemData ItemOID="IT.EC.EPOCH" Value="TREATMENT"/>
      <ItemData ItemOID="IT.EC.ECSTDTC" Value="2012-12-12"/>
      <ItemData ItemOID="IT.EC.ECENDTC" Value="2012-12-12"/>
      <ItemData ItemOID="IT.EC.ECSTDY" Value="13"/>
      <ItemData ItemOID="IT.EC.ECENDY" Value="13"/>
    </ItemGroupData>
    <ItemGroupData ItemGroupOID="IG.EC" data:ItemGroupDataSeq="14">
      <ItemData ItemOID="IT.EC.STUDYID" Value="CDISCPILOT01"/>
      <ItemData ItemOID="IT.EC.DOMAIN" Value="EC"/>
      <ItemData ItemOID="IT.EC.USUBJID" Value="CDISC001"/>
      <ItemData ItemOID="IT.EC.SPDEVID" Value="DEV0001"/>
      <ItemData ItemOID="IT.EC.ECSEQ" Value="14"/>
      <ItemData ItemOID="IT.EC.ECTRT" Value="ZANOMALINE"/>
      <ItemData ItemOID="IT.EC.ECPRESP" Value="Y"/>
      <ItemData ItemOID="IT.EC.ECOCCUR" Value="Y"/>
      <ItemData ItemOID="IT.EC.ECDOSE" Value="5"/>
      <ItemData ItemOID="IT.EC.ECDOSU" Value="mL"/>
      <ItemData ItemOID="IT.EC.ECDOSFRM" Value="INJECTION"/>
      <ItemData ItemOID="IT.EC.ECDOSFRQ" Value="QD"/>
      <ItemData ItemOID="IT.EC.ECROUTE" Value="SUBCUTANEOUS"/>
      <ItemData ItemOID="IT.EC.ECLOT" Value="SDS580-359"/>
      <ItemData ItemOID="IT.EC.ECPSTRG" Value="10.8"/>
      <ItemData ItemOID="IT.EC.ECPSTRGU" Value="g/L"/>
      <ItemData ItemOID="IT.EC.EPOCH" Value="TREATMENT"/>
      <ItemData ItemOID="IT.EC.ECSTDTC" Value="2012-12-13"/>
      <ItemData ItemOID="IT.EC.ECENDTC" Value="2012-12-13"/>
      <ItemData ItemOID="IT.EC.ECSTDY" Value="14"/>
      <ItemData ItemOID="IT.EC.ECENDY" Value="14"/>
    </ItemGroupData>
    <ItemGroupData ItemGroupOID="IG.EC" data:ItemGroupDataSeq="15">
      <ItemData ItemOID="IT.EC.STUDYID" Value="CDISCPILOT01"/>
      <ItemData ItemOID="IT.EC.DOMAIN" Value="EC"/>
      <ItemData ItemOID="IT.EC.USUBJID" Value="CDISC001"/>
      <ItemData ItemOID="IT.EC.SPDEVID" Value="DEV0001"/>
      <ItemData ItemOID="IT.EC.ECSEQ" Value="15"/>
      <ItemData ItemOID="IT.EC.ECTRT" Value="ZANOMALINE"/>
      <ItemData ItemOID="IT.EC.ECPRESP" Value="Y"/>
      <ItemData ItemOID="IT.EC.ECOCCUR" Value="Y"/>
      <ItemData ItemOID="IT.EC.ECDOSE" Value="5"/>
      <ItemData ItemOID="IT.EC.ECDOSU" Value="mL"/>
      <ItemData ItemOID="IT.EC.ECDOSFRM" Value="INJECTION"/>
      <ItemData ItemOID="IT.EC.ECDOSFRQ" Value="QD"/>
      <ItemData ItemOID="IT.EC.ECROUTE" Value="SUBCUTANEOUS"/>
      <ItemData ItemOID="IT.EC.ECLOT" Value="SDS580-359"/>
      <ItemData ItemOID="IT.EC.ECPSTRG" Value="10.8"/>
      <ItemData ItemOID="IT.EC.ECPSTRGU" Value="g/L"/>
      <ItemData ItemOID="IT.EC.EPOCH" Value="TREATMENT"/>
      <ItemData ItemOID="IT.EC.ECSTDTC" Value="2012-12-14"/>
      <ItemData ItemOID="IT.EC.ECENDTC" Value="2012-12-14"/>
      <ItemData ItemOID="IT.EC.ECSTDY" Value="15"/>
      <ItemData ItemOID="IT.EC.ECENDY" Value="15"/>
    </ItemGroupData>
    <ItemGroupData ItemGroupOID="IG.EC" data:ItemGroupDataSeq="16">
      <ItemData ItemOID="IT.EC.STUDYID" Value="CDISCPILOT01"/>
      <ItemData ItemOID="IT.EC.DOMAIN" Value="EC"/>
      <ItemData ItemOID="IT.EC.USUBJID" Value="CDISC001"/>
      <ItemData ItemOID="IT.EC.SPDEVID" Value="DEV0001"/>
      <ItemData ItemOID="IT.EC.ECSEQ" Value="16"/>
      <ItemData ItemOID="IT.EC.ECTRT" Value="ZANOMALINE"/>
      <ItemData ItemOID="IT.EC.ECPRESP" Value="Y"/>
      <ItemData ItemOID="IT.EC.ECOCCUR" Value="Y"/>
      <ItemData ItemOID="IT.EC.ECDOSE" Value="5"/>
      <ItemData ItemOID="IT.EC.ECDOSU" Value="mL"/>
      <ItemData ItemOID="IT.EC.ECDOSFRM" Value="INJECTION"/>
      <ItemData ItemOID="IT.EC.ECDOSFRQ" Value="QD"/>
      <ItemData ItemOID="IT.EC.ECROUTE" Value="SUBCUTANEOUS"/>
      <ItemData ItemOID="IT.EC.ECLOT" Value="SDS580-359"/>
      <ItemData ItemOID="IT.EC.ECPSTRG" Value="10.8"/>
      <ItemData ItemOID="IT.EC.ECPSTRGU" Value="g/L"/>
      <ItemData ItemOID="IT.EC.EPOCH" Value="TREATMENT"/>
      <ItemData ItemOID="IT.EC.ECSTDTC" Value="2012-12-15"/>
      <ItemData ItemOID="IT.EC.ECENDTC" Value="2012-12-15"/>
      <ItemData ItemOID="IT.EC.ECSTDY" Value="16"/>
      <ItemData ItemOID="IT.EC.ECENDY" Value="16"/>
    </ItemGroupData>
    <ItemGroupData ItemGroupOID="IG.EC" data:ItemGroupDataSeq="17">
      <ItemData ItemOID="IT.EC.STUDYID" Value="CDISCPILOT01"/>
      <ItemData ItemOID="IT.EC.DOMAIN" Value="EC"/>
      <ItemData ItemOID="IT.EC.USUBJID" Value="CDISC001"/>
      <ItemData ItemOID="IT.EC.SPDEVID" Value="DEV0001"/>
      <ItemData ItemOID="IT.EC.ECSEQ" Value="17"/>
      <ItemData ItemOID="IT.EC.ECTRT" Value="ZANOMALINE"/>
      <ItemData ItemOID="IT.EC.ECPRESP" Value="Y"/>
      <ItemData ItemOID="IT.EC.ECOCCUR" Value="Y"/>
      <ItemData ItemOID="IT.EC.ECDOSE" Value="5"/>
      <ItemData ItemOID="IT.EC.ECDOSU" Value="mL"/>
      <ItemData ItemOID="IT.EC.ECDOSFRM" Value="INJECTION"/>
      <ItemData ItemOID="IT.EC.ECDOSFRQ" Value="QD"/>
      <ItemData ItemOID="IT.EC.ECROUTE" Value="SUBCUTANEOUS"/>
      <ItemData ItemOID="IT.EC.ECLOT" Value="SDS580-359"/>
      <ItemData ItemOID="IT.EC.ECPSTRG" Value="10.8"/>
      <ItemData ItemOID="IT.EC.ECPSTRGU" Value="g/L"/>
      <ItemData ItemOID="IT.EC.EPOCH" Value="TREATMENT"/>
      <ItemData ItemOID="IT.EC.ECSTDTC" Value="2012-12-16"/>
      <ItemData ItemOID="IT.EC.ECENDTC" Value="2012-12-16"/>
      <ItemData ItemOID="IT.EC.ECSTDY" Value="17"/>
      <ItemData ItemOID="IT.EC.ECENDY" Value="17"/>
    </ItemGroupData>
    <ItemGroupData ItemGroupOID="IG.EC" data:ItemGroupDataSeq="18">
      <ItemData ItemOID="IT.EC.STUDYID" Value="CDISCPILOT01"/>
      <ItemData ItemOID="IT.EC.DOMAIN" Value="EC"/>
      <ItemData ItemOID="IT.EC.USUBJID" Value="CDISC001"/>
      <ItemData ItemOID="IT.EC.SPDEVID" Value="DEV0001"/>
      <ItemData ItemOID="IT.EC.ECSEQ" Value="18"/>
      <ItemData ItemOID="IT.EC.ECTRT" Value="ZANOMALINE"/>
      <ItemData ItemOID="IT.EC.ECPRESP" Value="Y"/>
      <ItemData ItemOID="IT.EC.ECOCCUR" Value="Y"/>
      <ItemData ItemOID="IT.EC.ECDOSE" Value="5"/>
      <ItemData ItemOID="IT.EC.ECDOSU" Value="mL"/>
      <ItemData ItemOID="IT.EC.ECDOSFRM" Value="INJECTION"/>
      <ItemData ItemOID="IT.EC.ECDOSFRQ" Value="QD"/>
      <ItemData ItemOID="IT.EC.ECROUTE" Value="SUBCUTANEOUS"/>
      <ItemData ItemOID="IT.EC.ECLOT" Value="SDS580-359"/>
      <ItemData ItemOID="IT.EC.ECPSTRG" Value="10.8"/>
      <ItemData ItemOID="IT.EC.ECPSTRGU" Value="g/L"/>
      <ItemData ItemOID="IT.EC.EPOCH" Value="TREATMENT"/>
      <ItemData ItemOID="IT.EC.ECSTDTC" Value="2012-12-17"/>
      <ItemData ItemOID="IT.EC.ECENDTC" Value="2012-12-17"/>
      <ItemData ItemOID="IT.EC.ECSTDY" Value="18"/>
      <ItemData ItemOID="IT.EC.ECENDY" Value="18"/>
    </ItemGroupData>
    <ItemGroupData ItemGroupOID="IG.EC" data:ItemGroupDataSeq="19">
      <ItemData ItemOID="IT.EC.STUDYID" Value="CDISCPILOT01"/>
      <ItemData ItemOID="IT.EC.DOMAIN" Value="EC"/>
      <ItemData ItemOID="IT.EC.USUBJID" Value="CDISC001"/>
      <ItemData ItemOID="IT.EC.SPDEVID" Value="DEV0001"/>
      <ItemData ItemOID="IT.EC.ECSEQ" Value="19"/>
      <ItemData ItemOID="IT.EC.ECTRT" Value="ZANOMALINE"/>
      <ItemData ItemOID="IT.EC.ECPRESP" Value="Y"/>
      <ItemData ItemOID="IT.EC.ECOCCUR" Value="Y"/>
      <ItemData ItemOID="IT.EC.ECDOSE" Value="5"/>
      <ItemData ItemOID="IT.EC.ECDOSU" Value="mL"/>
      <ItemData ItemOID="IT.EC.ECDOSFRM" Value="INJECTION"/>
      <ItemData ItemOID="IT.EC.ECDOSFRQ" Value="QD"/>
      <ItemData ItemOID="IT.EC.ECROUTE" Value="SUBCUTANEOUS"/>
      <ItemData ItemOID="IT.EC.ECLOT" Value="SDS580-359"/>
      <ItemData ItemOID="IT.EC.ECPSTRG" Value="10.8"/>
      <ItemData ItemOID="IT.EC.ECPSTRGU" Value="g/L"/>
      <ItemData ItemOID="IT.EC.EPOCH" Value="TREATMENT"/>
      <ItemData ItemOID="IT.EC.ECSTDTC" Value="2012-12-18"/>
      <ItemData ItemOID="IT.EC.ECENDTC" Value="2012-12-18"/>
      <ItemData ItemOID="IT.EC.ECSTDY" Value="19"/>
      <ItemData ItemOID="IT.EC.ECENDY" Value="19"/>
    </ItemGroupData>
    <ItemGroupData ItemGroupOID="IG.EC" data:ItemGroupDataSeq="20">
      <ItemData ItemOID="IT.EC.STUDYID" Value="CDISCPILOT01"/>
      <ItemData ItemOID="IT.EC.DOMAIN" Value="EC"/>
      <ItemData ItemOID="IT.EC.USUBJID" Value="CDISC001"/>
      <ItemData ItemOID="IT.EC.SPDEVID" Value="DEV0001"/>
      <ItemData ItemOID="IT.EC.ECSEQ" Value="20"/>
      <ItemData ItemOID="IT.EC.ECTRT" Value="ZANOMALINE"/>
      <ItemData ItemOID="IT.EC.ECPRESP" Value="Y"/>
      <ItemData ItemOID="IT.EC.ECOCCUR" Value="Y"/>
      <ItemData ItemOID="IT.EC.ECDOSE" Value="5"/>
      <ItemData ItemOID="IT.EC.ECDOSU" Value="mL"/>
      <ItemData ItemOID="IT.EC.ECDOSFRM" Value="INJECTION"/>
      <ItemData ItemOID="IT.EC.ECDOSFRQ" Value="QD"/>
      <ItemData ItemOID="IT.EC.ECROUTE" Value="SUBCUTANEOUS"/>
      <ItemData ItemOID="IT.EC.ECLOT" Value="SDS580-359"/>
      <ItemData ItemOID="IT.EC.ECPSTRG" Value="10.8"/>
      <ItemData ItemOID="IT.EC.ECPSTRGU" Value="g/L"/>
      <ItemData ItemOID="IT.EC.EPOCH" Value="TREATMENT"/>
      <ItemData ItemOID="IT.EC.ECSTDTC" Value="2012-12-19"/>
      <ItemData ItemOID="IT.EC.ECENDTC" Value="2012-12-19"/>
      <ItemData ItemOID="IT.EC.ECSTDY" Value="20"/>
      <ItemData ItemOID="IT.EC.ECENDY" Value="20"/>
    </ItemGroupData>
    <ItemGroupData ItemGroupOID="IG.EC" data:ItemGroupDataSeq="21">
      <ItemData ItemOID="IT.EC.STUDYID" Value="CDISCPILOT01"/>
      <ItemData ItemOID="IT.EC.DOMAIN" Value="EC"/>
      <ItemData ItemOID="IT.EC.USUBJID" Value="CDISC001"/>
      <ItemData ItemOID="IT.EC.SPDEVID" Value="DEV0001"/>
      <ItemData ItemOID="IT.EC.ECSEQ" Value="21"/>
      <ItemData ItemOID="IT.EC.ECTRT" Value="ZANOMALINE"/>
      <ItemData ItemOID="IT.EC.ECPRESP" Value="Y"/>
      <ItemData ItemOID="IT.EC.ECOCCUR" Value="Y"/>
      <ItemData ItemOID="IT.EC.ECDOSE" Value="5"/>
      <ItemData ItemOID="IT.EC.ECDOSU" Value="mL"/>
      <ItemData ItemOID="IT.EC.ECDOSFRM" Value="INJECTION"/>
      <ItemData ItemOID="IT.EC.ECDOSFRQ" Value="QD"/>
      <ItemData ItemOID="IT.EC.ECROUTE" Value="SUBCUTANEOUS"/>
      <ItemData ItemOID="IT.EC.ECLOT" Value="SDS580-359"/>
      <ItemData ItemOID="IT.EC.ECPSTRG" Value="10.8"/>
      <ItemData ItemOID="IT.EC.ECPSTRGU" Value="g/L"/>
      <ItemData ItemOID="IT.EC.EPOCH" Value="TREATMENT"/>
      <ItemData ItemOID="IT.EC.ECSTDTC" Value="2012-12-20"/>
      <ItemData ItemOID="IT.EC.ECENDTC" Value="2012-12-20"/>
      <ItemData ItemOID="IT.EC.ECSTDY" Value="21"/>
      <ItemData ItemOID="IT.EC.ECENDY" Value="21"/>
    </ItemGroupData>
    <ItemGroupData ItemGroupOID="IG.EC" data:ItemGroupDataSeq="22">
      <ItemData ItemOID="IT.EC.STUDYID" Value="CDISCPILOT01"/>
      <ItemData ItemOID="IT.EC.DOMAIN" Value="EC"/>
      <ItemData ItemOID="IT.EC.USUBJID" Value="CDISC001"/>
      <ItemData ItemOID="IT.EC.SPDEVID" Value="DEV0001"/>
      <ItemData ItemOID="IT.EC.ECSEQ" Value="22"/>
      <ItemData ItemOID="IT.EC.ECTRT" Value="ZANOMALINE"/>
      <ItemData ItemOID="IT.EC.ECPRESP" Value="Y"/>
      <ItemData ItemOID="IT.EC.ECOCCUR" Value="Y"/>
      <ItemData ItemOID="IT.EC.ECDOSE" Value="5"/>
      <ItemData ItemOID="IT.EC.ECDOSU" Value="mL"/>
      <ItemData ItemOID="IT.EC.ECDOSFRM" Value="INJECTION"/>
      <ItemData ItemOID="IT.EC.ECDOSFRQ" Value="QD"/>
      <ItemData ItemOID="IT.EC.ECROUTE" Value="SUBCUTANEOUS"/>
      <ItemData ItemOID="IT.EC.ECLOT" Value="SDS580-359"/>
      <ItemData ItemOID="IT.EC.ECPSTRG" Value="10.8"/>
      <ItemData ItemOID="IT.EC.ECPSTRGU" Value="g/L"/>
      <ItemData ItemOID="IT.EC.EPOCH" Value="TREATMENT"/>
      <ItemData ItemOID="IT.EC.ECSTDTC" Value="2012-12-21"/>
      <ItemData ItemOID="IT.EC.ECENDTC" Value="2012-12-21"/>
      <ItemData ItemOID="IT.EC.ECSTDY" Value="22"/>
      <ItemData ItemOID="IT.EC.ECENDY" Value="22"/>
    </ItemGroupData>
    <ItemGroupData ItemGroupOID="IG.EC" data:ItemGroupDataSeq="23">
      <ItemData ItemOID="IT.EC.STUDYID" Value="CDISCPILOT01"/>
      <ItemData ItemOID="IT.EC.DOMAIN" Value="EC"/>
      <ItemData ItemOID="IT.EC.USUBJID" Value="CDISC001"/>
      <ItemData ItemOID="IT.EC.SPDEVID" Value="DEV0001"/>
      <ItemData ItemOID="IT.EC.ECSEQ" Value="23"/>
      <ItemData ItemOID="IT.EC.ECTRT" Value="ZANOMALINE"/>
      <ItemData ItemOID="IT.EC.ECPRESP" Value="Y"/>
      <ItemData ItemOID="IT.EC.ECOCCUR" Value="Y"/>
      <ItemData ItemOID="IT.EC.ECDOSE" Value="5"/>
      <ItemData ItemOID="IT.EC.ECDOSU" Value="mL"/>
      <ItemData ItemOID="IT.EC.ECDOSFRM" Value="INJECTION"/>
      <ItemData ItemOID="IT.EC.ECDOSFRQ" Value="QD"/>
      <ItemData ItemOID="IT.EC.ECROUTE" Value="SUBCUTANEOUS"/>
      <ItemData ItemOID="IT.EC.ECLOT" Value="SDS580-359"/>
      <ItemData ItemOID="IT.EC.ECPSTRG" Value="10.8"/>
      <ItemData ItemOID="IT.EC.ECPSTRGU" Value="g/L"/>
      <ItemData ItemOID="IT.EC.EPOCH" Value="TREATMENT"/>
      <ItemData ItemOID="IT.EC.ECSTDTC" Value="2012-12-22"/>
      <ItemData ItemOID="IT.EC.ECENDTC" Value="2012-12-22"/>
      <ItemData ItemOID="IT.EC.ECSTDY" Value="23"/>
      <ItemData ItemOID="IT.EC.ECENDY" Value="23"/>
    </ItemGroupData>
    <ItemGroupData ItemGroupOID="IG.EC" data:ItemGroupDataSeq="24">
      <ItemData ItemOID="IT.EC.STUDYID" Value="CDISCPILOT01"/>
      <ItemData ItemOID="IT.EC.DOMAIN" Value="EC"/>
      <ItemData ItemOID="IT.EC.USUBJID" Value="CDISC001"/>
      <ItemData ItemOID="IT.EC.SPDEVID" Value="DEV0001"/>
      <ItemData ItemOID="IT.EC.ECSEQ" Value="24"/>
      <ItemData ItemOID="IT.EC.ECTRT" Value="ZANOMALINE"/>
      <ItemData ItemOID="IT.EC.ECPRESP" Value="Y"/>
      <ItemData ItemOID="IT.EC.ECOCCUR" Value="Y"/>
      <ItemData ItemOID="IT.EC.ECDOSE" Value="5"/>
      <ItemData ItemOID="IT.EC.ECDOSU" Value="mL"/>
      <ItemData ItemOID="IT.EC.ECDOSFRM" Value="INJECTION"/>
      <ItemData ItemOID="IT.EC.ECDOSFRQ" Value="QD"/>
      <ItemData ItemOID="IT.EC.ECROUTE" Value="SUBCUTANEOUS"/>
      <ItemData ItemOID="IT.EC.ECLOT" Value="SDS580-359"/>
      <ItemData ItemOID="IT.EC.ECPSTRG" Value="10.8"/>
      <ItemData ItemOID="IT.EC.ECPSTRGU" Value="g/L"/>
      <ItemData ItemOID="IT.EC.EPOCH" Value="TREATMENT"/>
      <ItemData ItemOID="IT.EC.ECSTDTC" Value="2012-12-23"/>
      <ItemData ItemOID="IT.EC.ECENDTC" Value="2012-12-23"/>
      <ItemData ItemOID="IT.EC.ECSTDY" Value="24"/>
      <ItemData ItemOID="IT.EC.ECENDY" Value="24"/>
    </ItemGroupData>
    <ItemGroupData ItemGroupOID="IG.EC" data:ItemGroupDataSeq="25">
      <ItemData ItemOID="IT.EC.STUDYID" Value="CDISCPILOT01"/>
      <ItemData ItemOID="IT.EC.DOMAIN" Value="EC"/>
      <ItemData ItemOID="IT.EC.USUBJID" Value="CDISC001"/>
      <ItemData ItemOID="IT.EC.SPDEVID" Value="DEV0001"/>
      <ItemData ItemOID="IT.EC.ECSEQ" Value="25"/>
      <ItemData ItemOID="IT.EC.ECTRT" Value="ZANOMALINE"/>
      <ItemData ItemOID="IT.EC.ECPRESP" Value="Y"/>
      <ItemData ItemOID="IT.EC.ECOCCUR" Value="Y"/>
      <ItemData ItemOID="IT.EC.ECDOSE" Value="5"/>
      <ItemData ItemOID="IT.EC.ECDOSU" Value="mL"/>
      <ItemData ItemOID="IT.EC.ECDOSFRM" Value="INJECTION"/>
      <ItemData ItemOID="IT.EC.ECDOSFRQ" Value="QD"/>
      <ItemData ItemOID="IT.EC.ECROUTE" Value="SUBCUTANEOUS"/>
      <ItemData ItemOID="IT.EC.ECLOT" Value="SDS580-359"/>
      <ItemData ItemOID="IT.EC.ECPSTRG" Value="10.8"/>
      <ItemData ItemOID="IT.EC.ECPSTRGU" Value="g/L"/>
      <ItemData ItemOID="IT.EC.EPOCH" Value="TREATMENT"/>
      <ItemData ItemOID="IT.EC.ECSTDTC" Value="2012-12-24"/>
      <ItemData ItemOID="IT.EC.ECENDTC" Value="2012-12-24"/>
      <ItemData ItemOID="IT.EC.ECSTDY" Value="25"/>
      <ItemData ItemOID="IT.EC.ECENDY" Value="25"/>
    </ItemGroupData>
    <ItemGroupData ItemGroupOID="IG.EC" data:ItemGroupDataSeq="26">
      <ItemData ItemOID="IT.EC.STUDYID" Value="CDISCPILOT01"/>
      <ItemData ItemOID="IT.EC.DOMAIN" Value="EC"/>
      <ItemData ItemOID="IT.EC.USUBJID" Value="CDISC001"/>
      <ItemData ItemOID="IT.EC.SPDEVID" Value="DEV0001"/>
      <ItemData ItemOID="IT.EC.ECSEQ" Value="26"/>
      <ItemData ItemOID="IT.EC.ECTRT" Value="ZANOMALINE"/>
      <ItemData ItemOID="IT.EC.ECPRESP" Value="Y"/>
      <ItemData ItemOID="IT.EC.ECOCCUR" Value="Y"/>
      <ItemData ItemOID="IT.EC.ECDOSE" Value="5"/>
      <ItemData ItemOID="IT.EC.ECDOSU" Value="mL"/>
      <ItemData ItemOID="IT.EC.ECDOSFRM" Value="INJECTION"/>
      <ItemData ItemOID="IT.EC.ECDOSFRQ" Value="QD"/>
      <ItemData ItemOID="IT.EC.ECROUTE" Value="SUBCUTANEOUS"/>
      <ItemData ItemOID="IT.EC.ECLOT" Value="SDS580-359"/>
      <ItemData ItemOID="IT.EC.ECPSTRG" Value="10.8"/>
      <ItemData ItemOID="IT.EC.ECPSTRGU" Value="g/L"/>
      <ItemData ItemOID="IT.EC.EPOCH" Value="TREATMENT"/>
      <ItemData ItemOID="IT.EC.ECSTDTC" Value="2012-12-25"/>
      <ItemData ItemOID="IT.EC.ECENDTC" Value="2012-12-25"/>
      <ItemData ItemOID="IT.EC.ECSTDY" Value="26"/>
      <ItemData ItemOID="IT.EC.ECENDY" Value="26"/>
    </ItemGroupData>
    <ItemGroupData ItemGroupOID="IG.EC" data:ItemGroupDataSeq="27">
      <ItemData ItemOID="IT.EC.STUDYID" Value="CDISCPILOT01"/>
      <ItemData ItemOID="IT.EC.DOMAIN" Value="EC"/>
      <ItemData ItemOID="IT.EC.USUBJID" Value="CDISC001"/>
      <ItemData ItemOID="IT.EC.SPDEVID" Value="DEV0001"/>
      <ItemData ItemOID="IT.EC.ECSEQ" Value="27"/>
      <ItemData ItemOID="IT.EC.ECTRT" Value="ZANOMALINE"/>
      <ItemData ItemOID="IT.EC.ECPRESP" Value="Y"/>
      <ItemData ItemOID="IT.EC.ECOCCUR" Value="Y"/>
      <ItemData ItemOID="IT.EC.ECDOSE" Value="5"/>
      <ItemData ItemOID="IT.EC.ECDOSU" Value="mL"/>
      <ItemData ItemOID="IT.EC.ECDOSFRM" Value="INJECTION"/>
      <ItemData ItemOID="IT.EC.ECDOSFRQ" Value="QD"/>
      <ItemData ItemOID="IT.EC.ECROUTE" Value="SUBCUTANEOUS"/>
      <ItemData ItemOID="IT.EC.ECLOT" Value="SDS580-359"/>
      <ItemData ItemOID="IT.EC.ECPSTRG" Value="10.8"/>
      <ItemData ItemOID="IT.EC.ECPSTRGU" Value="g/L"/>
      <ItemData ItemOID="IT.EC.EPOCH" Value="TREATMENT"/>
      <ItemData ItemOID="IT.EC.ECSTDTC" Value="2012-12-26"/>
      <ItemData ItemOID="IT.EC.ECENDTC" Value="2012-12-26"/>
      <ItemData ItemOID="IT.EC.ECSTDY" Value="27"/>
      <ItemData ItemOID="IT.EC.ECENDY" Value="27"/>
    </ItemGroupData>
    <ItemGroupData ItemGroupOID="IG.EC" data:ItemGroupDataSeq="28">
      <ItemData ItemOID="IT.EC.STUDYID" Value="CDISCPILOT01"/>
      <ItemData ItemOID="IT.EC.DOMAIN" Value="EC"/>
      <ItemData ItemOID="IT.EC.USUBJID" Value="CDISC001"/>
      <ItemData ItemOID="IT.EC.SPDEVID" Value="DEV0001"/>
      <ItemData ItemOID="IT.EC.ECSEQ" Value="28"/>
      <ItemData ItemOID="IT.EC.ECTRT" Value="ZANOMALINE"/>
      <ItemData ItemOID="IT.EC.ECPRESP" Value="Y"/>
      <ItemData ItemOID="IT.EC.ECOCCUR" Value="Y"/>
      <ItemData ItemOID="IT.EC.ECDOSE" Value="5"/>
      <ItemData ItemOID="IT.EC.ECDOSU" Value="mL"/>
      <ItemData ItemOID="IT.EC.ECDOSFRM" Value="INJECTION"/>
      <ItemData ItemOID="IT.EC.ECDOSFRQ" Value="QD"/>
      <ItemData ItemOID="IT.EC.ECROUTE" Value="SUBCUTANEOUS"/>
      <ItemData ItemOID="IT.EC.ECLOT" Value="SDS580-359"/>
      <ItemData ItemOID="IT.EC.ECPSTRG" Value="10.8"/>
      <ItemData ItemOID="IT.EC.ECPSTRGU" Value="g/L"/>
      <ItemData ItemOID="IT.EC.EPOCH" Value="TREATMENT"/>
      <ItemData ItemOID="IT.EC.ECSTDTC" Value="2012-12-27"/>
      <ItemData ItemOID="IT.EC.ECENDTC" Value="2012-12-27"/>
      <ItemData ItemOID="IT.EC.ECSTDY" Value="28"/>
      <ItemData ItemOID="IT.EC.ECENDY" Value="28"/>
    </ItemGroupData>
    <ItemGroupData ItemGroupOID="IG.EC" data:ItemGroupDataSeq="29">
      <ItemData ItemOID="IT.EC.STUDYID" Value="CDISCPILOT01"/>
      <ItemData ItemOID="IT.EC.DOMAIN" Value="EC"/>
      <ItemData ItemOID="IT.EC.USUBJID" Value="CDISC001"/>
      <ItemData ItemOID="IT.EC.SPDEVID" Value="DEV0001"/>
      <ItemData ItemOID="IT.EC.ECSEQ" Value="29"/>
      <ItemData ItemOID="IT.EC.ECTRT" Value="ZANOMALINE"/>
      <ItemData ItemOID="IT.EC.ECPRESP" Value="Y"/>
      <ItemData ItemOID="IT.EC.ECOCCUR" Value="Y"/>
      <ItemData ItemOID="IT.EC.ECDOSE" Value="5"/>
      <ItemData ItemOID="IT.EC.ECDOSU" Value="mL"/>
      <ItemData ItemOID="IT.EC.ECDOSFRM" Value="INJECTION"/>
      <ItemData ItemOID="IT.EC.ECDOSFRQ" Value="QD"/>
      <ItemData ItemOID="IT.EC.ECROUTE" Value="SUBCUTANEOUS"/>
      <ItemData ItemOID="IT.EC.ECLOT" Value="SDS580-359"/>
      <ItemData ItemOID="IT.EC.ECPSTRG" Value="10.8"/>
      <ItemData ItemOID="IT.EC.ECPSTRGU" Value="g/L"/>
      <ItemData ItemOID="IT.EC.EPOCH" Value="TREATMENT"/>
      <ItemData ItemOID="IT.EC.ECSTDTC" Value="2012-12-28"/>
      <ItemData ItemOID="IT.EC.ECENDTC" Value="2012-12-28"/>
      <ItemData ItemOID="IT.EC.ECSTDY" Value="29"/>
      <ItemData ItemOID="IT.EC.ECENDY" Value="29"/>
    </ItemGroupData>
    <ItemGroupData ItemGroupOID="IG.EC" data:ItemGroupDataSeq="30">
      <ItemData ItemOID="IT.EC.STUDYID" Value="CDISCPILOT01"/>
      <ItemData ItemOID="IT.EC.DOMAIN" Value="EC"/>
      <ItemData ItemOID="IT.EC.USUBJID" Value="CDISC001"/>
      <ItemData ItemOID="IT.EC.SPDEVID" Value="DEV0001"/>
      <ItemData ItemOID="IT.EC.ECSEQ" Value="30"/>
      <ItemData ItemOID="IT.EC.ECTRT" Value="ZANOMALINE"/>
      <ItemData ItemOID="IT.EC.ECPRESP" Value="Y"/>
      <ItemData ItemOID="IT.EC.ECOCCUR" Value="Y"/>
      <ItemData ItemOID="IT.EC.ECDOSE" Value="5"/>
      <ItemData ItemOID="IT.EC.ECDOSU" Value="mL"/>
      <ItemData ItemOID="IT.EC.ECDOSFRM" Value="INJECTION"/>
      <ItemData ItemOID="IT.EC.ECDOSFRQ" Value="QD"/>
      <ItemData ItemOID="IT.EC.ECROUTE" Value="SUBCUTANEOUS"/>
      <ItemData ItemOID="IT.EC.ECLOT" Value="SDS580-359"/>
      <ItemData ItemOID="IT.EC.ECPSTRG" Value="10.8"/>
      <ItemData ItemOID="IT.EC.ECPSTRGU" Value="g/L"/>
      <ItemData ItemOID="IT.EC.EPOCH" Value="TREATMENT"/>
      <ItemData ItemOID="IT.EC.ECSTDTC" Value="2012-12-29"/>
      <ItemData ItemOID="IT.EC.ECENDTC" Value="2012-12-29"/>
      <ItemData ItemOID="IT.EC.ECSTDY" Value="30"/>
      <ItemData ItemOID="IT.EC.ECENDY" Value="30"/>
    </ItemGroupData>
    <ItemGroupData ItemGroupOID="IG.EC" data:ItemGroupDataSeq="31">
      <ItemData ItemOID="IT.EC.STUDYID" Value="CDISCPILOT01"/>
      <ItemData ItemOID="IT.EC.DOMAIN" Value="EC"/>
      <ItemData ItemOID="IT.EC.USUBJID" Value="CDISC001"/>
      <ItemData ItemOID="IT.EC.SPDEVID" Value="DEV0001"/>
      <ItemData ItemOID="IT.EC.ECSEQ" Value="31"/>
      <ItemData ItemOID="IT.EC.ECTRT" Value="ZANOMALINE"/>
      <ItemData ItemOID="IT.EC.ECPRESP" Value="Y"/>
      <ItemData ItemOID="IT.EC.ECOCCUR" Value="Y"/>
      <ItemData ItemOID="IT.EC.ECDOSE" Value="5"/>
      <ItemData ItemOID="IT.EC.ECDOSU" Value="mL"/>
      <ItemData ItemOID="IT.EC.ECDOSFRM" Value="INJECTION"/>
      <ItemData ItemOID="IT.EC.ECDOSFRQ" Value="QD"/>
      <ItemData ItemOID="IT.EC.ECROUTE" Value="SUBCUTANEOUS"/>
      <ItemData ItemOID="IT.EC.ECLOT" Value="SDS580-359"/>
      <ItemData ItemOID="IT.EC.ECPSTRG" Value="10.8"/>
      <ItemData ItemOID="IT.EC.ECPSTRGU" Value="g/L"/>
      <ItemData ItemOID="IT.EC.EPOCH" Value="TREATMENT"/>
      <ItemData ItemOID="IT.EC.ECSTDTC" Value="2012-12-30"/>
      <ItemData ItemOID="IT.EC.ECENDTC" Value="2012-12-30"/>
      <ItemData ItemOID="IT.EC.ECSTDY" Value="31"/>
      <ItemData ItemOID="IT.EC.ECENDY" Value="31"/>
    </ItemGroupData>
    <ItemGroupData ItemGroupOID="IG.EC" data:ItemGroupDataSeq="32">
      <ItemData ItemOID="IT.EC.STUDYID" Value="CDISCPILOT01"/>
      <ItemData ItemOID="IT.EC.DOMAIN" Value="EC"/>
      <ItemData ItemOID="IT.EC.USUBJID" Value="CDISC001"/>
      <ItemData ItemOID="IT.EC.SPDEVID" Value="DEV0001"/>
      <ItemData ItemOID="IT.EC.ECSEQ" Value="32"/>
      <ItemData ItemOID="IT.EC.ECTRT" Value="ZANOMALINE"/>
      <ItemData ItemOID="IT.EC.ECPRESP" Value="Y"/>
      <ItemData ItemOID="IT.EC.ECOCCUR" Value="Y"/>
      <ItemData ItemOID="IT.EC.ECDOSE" Value="5"/>
      <ItemData ItemOID="IT.EC.ECDOSU" Value="mL"/>
      <ItemData ItemOID="IT.EC.ECDOSFRM" Value="INJECTION"/>
      <ItemData ItemOID="IT.EC.ECDOSFRQ" Value="QD"/>
      <ItemData ItemOID="IT.EC.ECROUTE" Value="SUBCUTANEOUS"/>
      <ItemData ItemOID="IT.EC.ECLOT" Value="SDS580-359"/>
      <ItemData ItemOID="IT.EC.ECPSTRG" Value="10.8"/>
      <ItemData ItemOID="IT.EC.ECPSTRGU" Value="g/L"/>
      <ItemData ItemOID="IT.EC.EPOCH" Value="TREATMENT"/>
      <ItemData ItemOID="IT.EC.ECSTDTC" Value="2012-12-31"/>
      <ItemData ItemOID="IT.EC.ECENDTC" Value="2012-12-31"/>
      <ItemData ItemOID="IT.EC.ECSTDY" Value="32"/>
      <ItemData ItemOID="IT.EC.ECENDY" Value="32"/>
    </ItemGroupData>
    <ItemGroupData ItemGroupOID="IG.EC" data:ItemGroupDataSeq="33">
      <ItemData ItemOID="IT.EC.STUDYID" Value="CDISCPILOT01"/>
      <ItemData ItemOID="IT.EC.DOMAIN" Value="EC"/>
      <ItemData ItemOID="IT.EC.USUBJID" Value="CDISC001"/>
      <ItemData ItemOID="IT.EC.SPDEVID" Value="DEV0001"/>
      <ItemData ItemOID="IT.EC.ECSEQ" Value="33"/>
      <ItemData ItemOID="IT.EC.ECTRT" Value="ZANOMALINE"/>
      <ItemData ItemOID="IT.EC.ECPRESP" Value="Y"/>
      <ItemData ItemOID="IT.EC.ECOCCUR" Value="Y"/>
      <ItemData ItemOID="IT.EC.ECDOSE" Value="5"/>
      <ItemData ItemOID="IT.EC.ECDOSU" Value="mL"/>
      <ItemData ItemOID="IT.EC.ECDOSFRM" Value="INJECTION"/>
      <ItemData ItemOID="IT.EC.ECDOSFRQ" Value="QD"/>
      <ItemData ItemOID="IT.EC.ECROUTE" Value="SUBCUTANEOUS"/>
      <ItemData ItemOID="IT.EC.ECLOT" Value="SDS580-359"/>
      <ItemData ItemOID="IT.EC.ECPSTRG" Value="10.8"/>
      <ItemData ItemOID="IT.EC.ECPSTRGU" Value="g/L"/>
      <ItemData ItemOID="IT.EC.EPOCH" Value="TREATMENT"/>
      <ItemData ItemOID="IT.EC.ECSTDTC" Value="2013-01-01"/>
      <ItemData ItemOID="IT.EC.ECENDTC" Value="2013-01-01"/>
      <ItemData ItemOID="IT.EC.ECSTDY" Value="33"/>
      <ItemData ItemOID="IT.EC.ECENDY" Value="33"/>
    </ItemGroupData>
    <ItemGroupData ItemGroupOID="IG.EC" data:ItemGroupDataSeq="34">
      <ItemData ItemOID="IT.EC.STUDYID" Value="CDISCPILOT01"/>
      <ItemData ItemOID="IT.EC.DOMAIN" Value="EC"/>
      <ItemData ItemOID="IT.EC.USUBJID" Value="CDISC001"/>
      <ItemData ItemOID="IT.EC.SPDEVID" Value="DEV0001"/>
      <ItemData ItemOID="IT.EC.ECSEQ" Value="34"/>
      <ItemData ItemOID="IT.EC.ECTRT" Value="ZANOMALINE"/>
      <ItemData ItemOID="IT.EC.ECPRESP" Value="Y"/>
      <ItemData ItemOID="IT.EC.ECOCCUR" Value="Y"/>
      <ItemData ItemOID="IT.EC.ECDOSE" Value="5"/>
      <ItemData ItemOID="IT.EC.ECDOSU" Value="mL"/>
      <ItemData ItemOID="IT.EC.ECDOSFRM" Value="INJECTION"/>
      <ItemData ItemOID="IT.EC.ECDOSFRQ" Value="QD"/>
      <ItemData ItemOID="IT.EC.ECROUTE" Value="SUBCUTANEOUS"/>
      <ItemData ItemOID="IT.EC.ECLOT" Value="SDS580-359"/>
      <ItemData ItemOID="IT.EC.ECPSTRG" Value="10.8"/>
      <ItemData ItemOID="IT.EC.ECPSTRGU" Value="g/L"/>
      <ItemData ItemOID="IT.EC.EPOCH" Value="TREATMENT"/>
      <ItemData ItemOID="IT.EC.ECSTDTC" Value="2013-01-02"/>
      <ItemData ItemOID="IT.EC.ECENDTC" Value="2013-01-02"/>
      <ItemData ItemOID="IT.EC.ECSTDY" Value="34"/>
      <ItemData ItemOID="IT.EC.ECENDY" Value="34"/>
    </ItemGroupData>
    <ItemGroupData ItemGroupOID="IG.EC" data:ItemGroupDataSeq="35">
      <ItemData ItemOID="IT.EC.STUDYID" Value="CDISCPILOT01"/>
      <ItemData ItemOID="IT.EC.DOMAIN" Value="EC"/>
      <ItemData ItemOID="IT.EC.USUBJID" Value="CDISC001"/>
      <ItemData ItemOID="IT.EC.SPDEVID" Value="DEV0001"/>
      <ItemData ItemOID="IT.EC.ECSEQ" Value="35"/>
      <ItemData ItemOID="IT.EC.ECTRT" Value="ZANOMALINE"/>
      <ItemData ItemOID="IT.EC.ECPRESP" Value="Y"/>
      <ItemData ItemOID="IT.EC.ECOCCUR" Value="Y"/>
      <ItemData ItemOID="IT.EC.ECDOSE" Value="5"/>
      <ItemData ItemOID="IT.EC.ECDOSU" Value="mL"/>
      <ItemData ItemOID="IT.EC.ECDOSFRM" Value="INJECTION"/>
      <ItemData ItemOID="IT.EC.ECDOSFRQ" Value="QD"/>
      <ItemData ItemOID="IT.EC.ECROUTE" Value="SUBCUTANEOUS"/>
      <ItemData ItemOID="IT.EC.ECLOT" Value="SDS580-359"/>
      <ItemData ItemOID="IT.EC.ECPSTRG" Value="10.8"/>
      <ItemData ItemOID="IT.EC.ECPSTRGU" Value="g/L"/>
      <ItemData ItemOID="IT.EC.EPOCH" Value="TREATMENT"/>
      <ItemData ItemOID="IT.EC.ECSTDTC" Value="2013-01-03"/>
      <ItemData ItemOID="IT.EC.ECENDTC" Value="2013-01-03"/>
      <ItemData ItemOID="IT.EC.ECSTDY" Value="35"/>
      <ItemData ItemOID="IT.EC.ECENDY" Value="35"/>
    </ItemGroupData>
    <ItemGroupData ItemGroupOID="IG.EC" data:ItemGroupDataSeq="36">
      <ItemData ItemOID="IT.EC.STUDYID" Value="CDISCPILOT01"/>
      <ItemData ItemOID="IT.EC.DOMAIN" Value="EC"/>
      <ItemData ItemOID="IT.EC.USUBJID" Value="CDISC001"/>
      <ItemData ItemOID="IT.EC.SPDEVID" Value="DEV0001"/>
      <ItemData ItemOID="IT.EC.ECSEQ" Value="36"/>
      <ItemData ItemOID="IT.EC.ECTRT" Value="ZANOMALINE"/>
      <ItemData ItemOID="IT.EC.ECPRESP" Value="Y"/>
      <ItemData ItemOID="IT.EC.ECOCCUR" Value="Y"/>
      <ItemData ItemOID="IT.EC.ECDOSE" Value="5"/>
      <ItemData ItemOID="IT.EC.ECDOSU" Value="mL"/>
      <ItemData ItemOID="IT.EC.ECDOSFRM" Value="INJECTION"/>
      <ItemData ItemOID="IT.EC.ECDOSFRQ" Value="QD"/>
      <ItemData ItemOID="IT.EC.ECROUTE" Value="SUBCUTANEOUS"/>
      <ItemData ItemOID="IT.EC.ECLOT" Value="SDS580-359"/>
      <ItemData ItemOID="IT.EC.ECPSTRG" Value="10.8"/>
      <ItemData ItemOID="IT.EC.ECPSTRGU" Value="g/L"/>
      <ItemData ItemOID="IT.EC.EPOCH" Value="TREATMENT"/>
      <ItemData ItemOID="IT.EC.ECSTDTC" Value="2013-01-04"/>
      <ItemData ItemOID="IT.EC.ECENDTC" Value="2013-01-04"/>
      <ItemData ItemOID="IT.EC.ECSTDY" Value="36"/>
      <ItemData ItemOID="IT.EC.ECENDY" Value="36"/>
    </ItemGroupData>
    <ItemGroupData ItemGroupOID="IG.EC" data:ItemGroupDataSeq="37">
      <ItemData ItemOID="IT.EC.STUDYID" Value="CDISCPILOT01"/>
      <ItemData ItemOID="IT.EC.DOMAIN" Value="EC"/>
      <ItemData ItemOID="IT.EC.USUBJID" Value="CDISC001"/>
      <ItemData ItemOID="IT.EC.SPDEVID" Value="DEV0001"/>
      <ItemData ItemOID="IT.EC.ECSEQ" Value="37"/>
      <ItemData ItemOID="IT.EC.ECTRT" Value="ZANOMALINE"/>
      <ItemData ItemOID="IT.EC.ECPRESP" Value="Y"/>
      <ItemData ItemOID="IT.EC.ECOCCUR" Value="Y"/>
      <ItemData ItemOID="IT.EC.ECDOSE" Value="5"/>
      <ItemData ItemOID="IT.EC.ECDOSU" Value="mL"/>
      <ItemData ItemOID="IT.EC.ECDOSFRM" Value="INJECTION"/>
      <ItemData ItemOID="IT.EC.ECDOSFRQ" Value="QD"/>
      <ItemData ItemOID="IT.EC.ECROUTE" Value="SUBCUTANEOUS"/>
      <ItemData ItemOID="IT.EC.ECLOT" Value="SDS580-359"/>
      <ItemData ItemOID="IT.EC.ECPSTRG" Value="10.8"/>
      <ItemData ItemOID="IT.EC.ECPSTRGU" Value="g/L"/>
      <ItemData ItemOID="IT.EC.EPOCH" Value="TREATMENT"/>
      <ItemData ItemOID="IT.EC.ECSTDTC" Value="2013-01-05"/>
      <ItemData ItemOID="IT.EC.ECENDTC" Value="2013-01-05"/>
      <ItemData ItemOID="IT.EC.ECSTDY" Value="37"/>
      <ItemData ItemOID="IT.EC.ECENDY" Value="37"/>
    </ItemGroupData>
    <ItemGroupData ItemGroupOID="IG.EC" data:ItemGroupDataSeq="38">
      <ItemData ItemOID="IT.EC.STUDYID" Value="CDISCPILOT01"/>
      <ItemData ItemOID="IT.EC.DOMAIN" Value="EC"/>
      <ItemData ItemOID="IT.EC.USUBJID" Value="CDISC001"/>
      <ItemData ItemOID="IT.EC.SPDEVID" Value="DEV0001"/>
      <ItemData ItemOID="IT.EC.ECSEQ" Value="38"/>
      <ItemData ItemOID="IT.EC.ECTRT" Value="ZANOMALINE"/>
      <ItemData ItemOID="IT.EC.ECPRESP" Value="Y"/>
      <ItemData ItemOID="IT.EC.ECOCCUR" Value="Y"/>
      <ItemData ItemOID="IT.EC.ECDOSE" Value="5"/>
      <ItemData ItemOID="IT.EC.ECDOSU" Value="mL"/>
      <ItemData ItemOID="IT.EC.ECDOSFRM" Value="INJECTION"/>
      <ItemData ItemOID="IT.EC.ECDOSFRQ" Value="QD"/>
      <ItemData ItemOID="IT.EC.ECROUTE" Value="SUBCUTANEOUS"/>
      <ItemData ItemOID="IT.EC.ECLOT" Value="SDS580-359"/>
      <ItemData ItemOID="IT.EC.ECPSTRG" Value="10.8"/>
      <ItemData ItemOID="IT.EC.ECPSTRGU" Value="g/L"/>
      <ItemData ItemOID="IT.EC.EPOCH" Value="TREATMENT"/>
      <ItemData ItemOID="IT.EC.ECSTDTC" Value="2013-01-06"/>
      <ItemData ItemOID="IT.EC.ECENDTC" Value="2013-01-06"/>
      <ItemData ItemOID="IT.EC.ECSTDY" Value="38"/>
      <ItemData ItemOID="IT.EC.ECENDY" Value="38"/>
    </ItemGroupData>
    <ItemGroupData ItemGroupOID="IG.EC" data:ItemGroupDataSeq="39">
      <ItemData ItemOID="IT.EC.STUDYID" Value="CDISCPILOT01"/>
      <ItemData ItemOID="IT.EC.DOMAIN" Value="EC"/>
      <ItemData ItemOID="IT.EC.USUBJID" Value="CDISC001"/>
      <ItemData ItemOID="IT.EC.SPDEVID" Value="DEV0001"/>
      <ItemData ItemOID="IT.EC.ECSEQ" Value="39"/>
      <ItemData ItemOID="IT.EC.ECTRT" Value="ZANOMALINE"/>
      <ItemData ItemOID="IT.EC.ECPRESP" Value="Y"/>
      <ItemData ItemOID="IT.EC.ECOCCUR" Value="Y"/>
      <ItemData ItemOID="IT.EC.ECDOSE" Value="5"/>
      <ItemData ItemOID="IT.EC.ECDOSU" Value="mL"/>
      <ItemData ItemOID="IT.EC.ECDOSFRM" Value="INJECTION"/>
      <ItemData ItemOID="IT.EC.ECDOSFRQ" Value="QD"/>
      <ItemData ItemOID="IT.EC.ECROUTE" Value="SUBCUTANEOUS"/>
      <ItemData ItemOID="IT.EC.ECLOT" Value="SDS580-359"/>
      <ItemData ItemOID="IT.EC.ECPSTRG" Value="10.8"/>
      <ItemData ItemOID="IT.EC.ECPSTRGU" Value="g/L"/>
      <ItemData ItemOID="IT.EC.EPOCH" Value="TREATMENT"/>
      <ItemData ItemOID="IT.EC.ECSTDTC" Value="2013-01-07"/>
      <ItemData ItemOID="IT.EC.ECENDTC" Value="2013-01-07"/>
      <ItemData ItemOID="IT.EC.ECSTDY" Value="39"/>
      <ItemData ItemOID="IT.EC.ECENDY" Value="39"/>
    </ItemGroupData>
    <ItemGroupData ItemGroupOID="IG.EC" data:ItemGroupDataSeq="40">
      <ItemData ItemOID="IT.EC.STUDYID" Value="CDISCPILOT01"/>
      <ItemData ItemOID="IT.EC.DOMAIN" Value="EC"/>
      <ItemData ItemOID="IT.EC.USUBJID" Value="CDISC001"/>
      <ItemData ItemOID="IT.EC.SPDEVID" Value="DEV0001"/>
      <ItemData ItemOID="IT.EC.ECSEQ" Value="40"/>
      <ItemData ItemOID="IT.EC.ECTRT" Value="ZANOMALINE"/>
      <ItemData ItemOID="IT.EC.ECPRESP" Value="Y"/>
      <ItemData ItemOID="IT.EC.ECOCCUR" Value="Y"/>
      <ItemData ItemOID="IT.EC.ECDOSE" Value="5"/>
      <ItemData ItemOID="IT.EC.ECDOSU" Value="mL"/>
      <ItemData ItemOID="IT.EC.ECDOSFRM" Value="INJECTION"/>
      <ItemData ItemOID="IT.EC.ECDOSFRQ" Value="QD"/>
      <ItemData ItemOID="IT.EC.ECROUTE" Value="SUBCUTANEOUS"/>
      <ItemData ItemOID="IT.EC.ECLOT" Value="SDS580-359"/>
      <ItemData ItemOID="IT.EC.ECPSTRG" Value="10.8"/>
      <ItemData ItemOID="IT.EC.ECPSTRGU" Value="g/L"/>
      <ItemData ItemOID="IT.EC.EPOCH" Value="TREATMENT"/>
      <ItemData ItemOID="IT.EC.ECSTDTC" Value="2013-01-08"/>
      <ItemData ItemOID="IT.EC.ECENDTC" Value="2013-01-08"/>
      <ItemData ItemOID="IT.EC.ECSTDY" Value="40"/>
      <ItemData ItemOID="IT.EC.ECENDY" Value="40"/>
    </ItemGroupData>
    <ItemGroupData ItemGroupOID="IG.EC" data:ItemGroupDataSeq="41">
      <ItemData ItemOID="IT.EC.STUDYID" Value="CDISCPILOT01"/>
      <ItemData ItemOID="IT.EC.DOMAIN" Value="EC"/>
      <ItemData ItemOID="IT.EC.USUBJID" Value="CDISC001"/>
      <ItemData ItemOID="IT.EC.SPDEVID" Value="DEV0001"/>
      <ItemData ItemOID="IT.EC.ECSEQ" Value="41"/>
      <ItemData ItemOID="IT.EC.ECTRT" Value="ZANOMALINE"/>
      <ItemData ItemOID="IT.EC.ECPRESP" Value="Y"/>
      <ItemData ItemOID="IT.EC.ECOCCUR" Value="Y"/>
      <ItemData ItemOID="IT.EC.ECDOSE" Value="5"/>
      <ItemData ItemOID="IT.EC.ECDOSU" Value="mL"/>
      <ItemData ItemOID="IT.EC.ECDOSFRM" Value="INJECTION"/>
      <ItemData ItemOID="IT.EC.ECDOSFRQ" Value="QD"/>
      <ItemData ItemOID="IT.EC.ECROUTE" Value="SUBCUTANEOUS"/>
      <ItemData ItemOID="IT.EC.ECLOT" Value="SDS580-359"/>
      <ItemData ItemOID="IT.EC.ECPSTRG" Value="10.8"/>
      <ItemData ItemOID="IT.EC.ECPSTRGU" Value="g/L"/>
      <ItemData ItemOID="IT.EC.EPOCH" Value="TREATMENT"/>
      <ItemData ItemOID="IT.EC.ECSTDTC" Value="2013-01-09"/>
      <ItemData ItemOID="IT.EC.ECENDTC" Value="2013-01-09"/>
      <ItemData ItemOID="IT.EC.ECSTDY" Value="41"/>
      <ItemData ItemOID="IT.EC.ECENDY" Value="41"/>
    </ItemGroupData>
    <ItemGroupData ItemGroupOID="IG.EC" data:ItemGroupDataSeq="42">
      <ItemData ItemOID="IT.EC.STUDYID" Value="CDISCPILOT01"/>
      <ItemData ItemOID="IT.EC.DOMAIN" Value="EC"/>
      <ItemData ItemOID="IT.EC.USUBJID" Value="CDISC001"/>
      <ItemData ItemOID="IT.EC.SPDEVID" Value="DEV0001"/>
      <ItemData ItemOID="IT.EC.ECSEQ" Value="42"/>
      <ItemData ItemOID="IT.EC.ECTRT" Value="ZANOMALINE"/>
      <ItemData ItemOID="IT.EC.ECPRESP" Value="Y"/>
      <ItemData ItemOID="IT.EC.ECOCCUR" Value="Y"/>
      <ItemData ItemOID="IT.EC.ECDOSE" Value="5"/>
      <ItemData ItemOID="IT.EC.ECDOSU" Value="mL"/>
      <ItemData ItemOID="IT.EC.ECDOSFRM" Value="INJECTION"/>
      <ItemData ItemOID="IT.EC.ECDOSFRQ" Value="QD"/>
      <ItemData ItemOID="IT.EC.ECROUTE" Value="SUBCUTANEOUS"/>
      <ItemData ItemOID="IT.EC.ECLOT" Value="SDS580-359"/>
      <ItemData ItemOID="IT.EC.ECPSTRG" Value="10.8"/>
      <ItemData ItemOID="IT.EC.ECPSTRGU" Value="g/L"/>
      <ItemData ItemOID="IT.EC.EPOCH" Value="TREATMENT"/>
      <ItemData ItemOID="IT.EC.ECSTDTC" Value="2013-01-10"/>
      <ItemData ItemOID="IT.EC.ECENDTC" Value="2013-01-10"/>
      <ItemData ItemOID="IT.EC.ECSTDY" Value="42"/>
      <ItemData ItemOID="IT.EC.ECENDY" Value="42"/>
    </ItemGroupData>
    <ItemGroupData ItemGroupOID="IG.EC" data:ItemGroupDataSeq="43">
      <ItemData ItemOID="IT.EC.STUDYID" Value="CDISCPILOT01"/>
      <ItemData ItemOID="IT.EC.DOMAIN" Value="EC"/>
      <ItemData ItemOID="IT.EC.USUBJID" Value="CDISC001"/>
      <ItemData ItemOID="IT.EC.SPDEVID" Value="DEV0001"/>
      <ItemData ItemOID="IT.EC.ECSEQ" Value="43"/>
      <ItemData ItemOID="IT.EC.ECTRT" Value="ZANOMALINE"/>
      <ItemData ItemOID="IT.EC.ECPRESP" Value="Y"/>
      <ItemData ItemOID="IT.EC.ECOCCUR" Value="Y"/>
      <ItemData ItemOID="IT.EC.ECDOSE" Value="5"/>
      <ItemData ItemOID="IT.EC.ECDOSU" Value="mL"/>
      <ItemData ItemOID="IT.EC.ECDOSFRM" Value="INJECTION"/>
      <ItemData ItemOID="IT.EC.ECDOSFRQ" Value="QD"/>
      <ItemData ItemOID="IT.EC.ECROUTE" Value="SUBCUTANEOUS"/>
      <ItemData ItemOID="IT.EC.ECLOT" Value="SDS580-359"/>
      <ItemData ItemOID="IT.EC.ECPSTRG" Value="10.8"/>
      <ItemData ItemOID="IT.EC.ECPSTRGU" Value="g/L"/>
      <ItemData ItemOID="IT.EC.EPOCH" Value="TREATMENT"/>
      <ItemData ItemOID="IT.EC.ECSTDTC" Value="2013-01-11"/>
      <ItemData ItemOID="IT.EC.ECENDTC" Value="2013-01-11"/>
      <ItemData ItemOID="IT.EC.ECSTDY" Value="43"/>
      <ItemData ItemOID="IT.EC.ECENDY" Value="43"/>
    </ItemGroupData>
    <ItemGroupData ItemGroupOID="IG.EC" data:ItemGroupDataSeq="44">
      <ItemData ItemOID="IT.EC.STUDYID" Value="CDISCPILOT01"/>
      <ItemData ItemOID="IT.EC.DOMAIN" Value="EC"/>
      <ItemData ItemOID="IT.EC.USUBJID" Value="CDISC001"/>
      <ItemData ItemOID="IT.EC.SPDEVID" Value="DEV0001"/>
      <ItemData ItemOID="IT.EC.ECSEQ" Value="44"/>
      <ItemData ItemOID="IT.EC.ECTRT" Value="ZANOMALINE"/>
      <ItemData ItemOID="IT.EC.ECPRESP" Value="Y"/>
      <ItemData ItemOID="IT.EC.ECOCCUR" Value="Y"/>
      <ItemData ItemOID="IT.EC.ECDOSE" Value="5"/>
      <ItemData ItemOID="IT.EC.ECDOSU" Value="mL"/>
      <ItemData ItemOID="IT.EC.ECDOSFRM" Value="INJECTION"/>
      <ItemData ItemOID="IT.EC.ECDOSFRQ" Value="QD"/>
      <ItemData ItemOID="IT.EC.ECROUTE" Value="SUBCUTANEOUS"/>
      <ItemData ItemOID="IT.EC.ECLOT" Value="SDS580-359"/>
      <ItemData ItemOID="IT.EC.ECPSTRG" Value="10.8"/>
      <ItemData ItemOID="IT.EC.ECPSTRGU" Value="g/L"/>
      <ItemData ItemOID="IT.EC.EPOCH" Value="TREATMENT"/>
      <ItemData ItemOID="IT.EC.ECSTDTC" Value="2013-01-12"/>
      <ItemData ItemOID="IT.EC.ECENDTC" Value="2013-01-12"/>
      <ItemData ItemOID="IT.EC.ECSTDY" Value="44"/>
      <ItemData ItemOID="IT.EC.ECENDY" Value="44"/>
    </ItemGroupData>
    <ItemGroupData ItemGroupOID="IG.EC" data:ItemGroupDataSeq="45">
      <ItemData ItemOID="IT.EC.STUDYID" Value="CDISCPILOT01"/>
      <ItemData ItemOID="IT.EC.DOMAIN" Value="EC"/>
      <ItemData ItemOID="IT.EC.USUBJID" Value="CDISC001"/>
      <ItemData ItemOID="IT.EC.SPDEVID" Value="DEV0001"/>
      <ItemData ItemOID="IT.EC.ECSEQ" Value="45"/>
      <ItemData ItemOID="IT.EC.ECTRT" Value="ZANOMALINE"/>
      <ItemData ItemOID="IT.EC.ECPRESP" Value="Y"/>
      <ItemData ItemOID="IT.EC.ECOCCUR" Value="Y"/>
      <ItemData ItemOID="IT.EC.ECDOSE" Value="5"/>
      <ItemData ItemOID="IT.EC.ECDOSU" Value="mL"/>
      <ItemData ItemOID="IT.EC.ECDOSFRM" Value="INJECTION"/>
      <ItemData ItemOID="IT.EC.ECDOSFRQ" Value="QD"/>
      <ItemData ItemOID="IT.EC.ECROUTE" Value="SUBCUTANEOUS"/>
      <ItemData ItemOID="IT.EC.ECLOT" Value="SDS580-359"/>
      <ItemData ItemOID="IT.EC.ECPSTRG" Value="10.8"/>
      <ItemData ItemOID="IT.EC.ECPSTRGU" Value="g/L"/>
      <ItemData ItemOID="IT.EC.EPOCH" Value="TREATMENT"/>
      <ItemData ItemOID="IT.EC.ECSTDTC" Value="2013-01-13"/>
      <ItemData ItemOID="IT.EC.ECENDTC" Value="2013-01-13"/>
      <ItemData ItemOID="IT.EC.ECSTDY" Value="45"/>
      <ItemData ItemOID="IT.EC.ECENDY" Value="45"/>
    </ItemGroupData>
    <ItemGroupData ItemGroupOID="IG.EC" data:ItemGroupDataSeq="46">
      <ItemData ItemOID="IT.EC.STUDYID" Value="CDISCPILOT01"/>
      <ItemData ItemOID="IT.EC.DOMAIN" Value="EC"/>
      <ItemData ItemOID="IT.EC.USUBJID" Value="CDISC001"/>
      <ItemData ItemOID="IT.EC.SPDEVID" Value="DEV0001"/>
      <ItemData ItemOID="IT.EC.ECSEQ" Value="46"/>
      <ItemData ItemOID="IT.EC.ECTRT" Value="ZANOMALINE"/>
      <ItemData ItemOID="IT.EC.ECPRESP" Value="Y"/>
      <ItemData ItemOID="IT.EC.ECOCCUR" Value="Y"/>
      <ItemData ItemOID="IT.EC.ECDOSE" Value="5"/>
      <ItemData ItemOID="IT.EC.ECDOSU" Value="mL"/>
      <ItemData ItemOID="IT.EC.ECDOSFRM" Value="INJECTION"/>
      <ItemData ItemOID="IT.EC.ECDOSFRQ" Value="QD"/>
      <ItemData ItemOID="IT.EC.ECROUTE" Value="SUBCUTANEOUS"/>
      <ItemData ItemOID="IT.EC.ECLOT" Value="SDS580-359"/>
      <ItemData ItemOID="IT.EC.ECPSTRG" Value="10.8"/>
      <ItemData ItemOID="IT.EC.ECPSTRGU" Value="g/L"/>
      <ItemData ItemOID="IT.EC.EPOCH" Value="TREATMENT"/>
      <ItemData ItemOID="IT.EC.ECSTDTC" Value="2013-01-14"/>
      <ItemData ItemOID="IT.EC.ECENDTC" Value="2013-01-14"/>
      <ItemData ItemOID="IT.EC.ECSTDY" Value="46"/>
      <ItemData ItemOID="IT.EC.ECENDY" Value="46"/>
    </ItemGroupData>
    <ItemGroupData ItemGroupOID="IG.EC" data:ItemGroupDataSeq="47">
      <ItemData ItemOID="IT.EC.STUDYID" Value="CDISCPILOT01"/>
      <ItemData ItemOID="IT.EC.DOMAIN" Value="EC"/>
      <ItemData ItemOID="IT.EC.USUBJID" Value="CDISC001"/>
      <ItemData ItemOID="IT.EC.SPDEVID" Value="DEV0001"/>
      <ItemData ItemOID="IT.EC.ECSEQ" Value="47"/>
      <ItemData ItemOID="IT.EC.ECTRT" Value="ZANOMALINE"/>
      <ItemData ItemOID="IT.EC.ECPRESP" Value="Y"/>
      <ItemData ItemOID="IT.EC.ECOCCUR" Value="Y"/>
      <ItemData ItemOID="IT.EC.ECDOSE" Value="5"/>
      <ItemData ItemOID="IT.EC.ECDOSU" Value="mL"/>
      <ItemData ItemOID="IT.EC.ECDOSFRM" Value="INJECTION"/>
      <ItemData ItemOID="IT.EC.ECDOSFRQ" Value="QD"/>
      <ItemData ItemOID="IT.EC.ECROUTE" Value="SUBCUTANEOUS"/>
      <ItemData ItemOID="IT.EC.ECLOT" Value="SDS580-359"/>
      <ItemData ItemOID="IT.EC.ECPSTRG" Value="10.8"/>
      <ItemData ItemOID="IT.EC.ECPSTRGU" Value="g/L"/>
      <ItemData ItemOID="IT.EC.EPOCH" Value="TREATMENT"/>
      <ItemData ItemOID="IT.EC.ECSTDTC" Value="2013-01-15"/>
      <ItemData ItemOID="IT.EC.ECENDTC" Value="2013-01-15"/>
      <ItemData ItemOID="IT.EC.ECSTDY" Value="47"/>
      <ItemData ItemOID="IT.EC.ECENDY" Value="47"/>
    </ItemGroupData>
    <ItemGroupData ItemGroupOID="IG.EC" data:ItemGroupDataSeq="48">
      <ItemData ItemOID="IT.EC.STUDYID" Value="CDISCPILOT01"/>
      <ItemData ItemOID="IT.EC.DOMAIN" Value="EC"/>
      <ItemData ItemOID="IT.EC.USUBJID" Value="CDISC001"/>
      <ItemData ItemOID="IT.EC.SPDEVID" Value="DEV0001"/>
      <ItemData ItemOID="IT.EC.ECSEQ" Value="48"/>
      <ItemData ItemOID="IT.EC.ECTRT" Value="ZANOMALINE"/>
      <ItemData ItemOID="IT.EC.ECPRESP" Value="Y"/>
      <ItemData ItemOID="IT.EC.ECOCCUR" Value="Y"/>
      <ItemData ItemOID="IT.EC.ECDOSE" Value="5"/>
      <ItemData ItemOID="IT.EC.ECDOSU" Value="mL"/>
      <ItemData ItemOID="IT.EC.ECDOSFRM" Value="INJECTION"/>
      <ItemData ItemOID="IT.EC.ECDOSFRQ" Value="QD"/>
      <ItemData ItemOID="IT.EC.ECROUTE" Value="SUBCUTANEOUS"/>
      <ItemData ItemOID="IT.EC.ECLOT" Value="SDS580-359"/>
      <ItemData ItemOID="IT.EC.ECPSTRG" Value="10.8"/>
      <ItemData ItemOID="IT.EC.ECPSTRGU" Value="g/L"/>
      <ItemData ItemOID="IT.EC.EPOCH" Value="TREATMENT"/>
      <ItemData ItemOID="IT.EC.ECSTDTC" Value="2013-01-16"/>
      <ItemData ItemOID="IT.EC.ECENDTC" Value="2013-01-16"/>
      <ItemData ItemOID="IT.EC.ECSTDY" Value="48"/>
      <ItemData ItemOID="IT.EC.ECENDY" Value="48"/>
    </ItemGroupData>
    <ItemGroupData ItemGroupOID="IG.EC" data:ItemGroupDataSeq="49">
      <ItemData ItemOID="IT.EC.STUDYID" Value="CDISCPILOT01"/>
      <ItemData ItemOID="IT.EC.DOMAIN" Value="EC"/>
      <ItemData ItemOID="IT.EC.USUBJID" Value="CDISC001"/>
      <ItemData ItemOID="IT.EC.SPDEVID" Value="DEV0001"/>
      <ItemData ItemOID="IT.EC.ECSEQ" Value="49"/>
      <ItemData ItemOID="IT.EC.ECTRT" Value="ZANOMALINE"/>
      <ItemData ItemOID="IT.EC.ECPRESP" Value="Y"/>
      <ItemData ItemOID="IT.EC.ECOCCUR" Value="Y"/>
      <ItemData ItemOID="IT.EC.ECDOSE" Value="5"/>
      <ItemData ItemOID="IT.EC.ECDOSU" Value="mL"/>
      <ItemData ItemOID="IT.EC.ECDOSFRM" Value="INJECTION"/>
      <ItemData ItemOID="IT.EC.ECDOSFRQ" Value="QD"/>
      <ItemData ItemOID="IT.EC.ECROUTE" Value="SUBCUTANEOUS"/>
      <ItemData ItemOID="IT.EC.ECLOT" Value="SDS580-359"/>
      <ItemData ItemOID="IT.EC.ECPSTRG" Value="10.8"/>
      <ItemData ItemOID="IT.EC.ECPSTRGU" Value="g/L"/>
      <ItemData ItemOID="IT.EC.EPOCH" Value="TREATMENT"/>
      <ItemData ItemOID="IT.EC.ECSTDTC" Value="2013-01-17"/>
      <ItemData ItemOID="IT.EC.ECENDTC" Value="2013-01-17"/>
      <ItemData ItemOID="IT.EC.ECSTDY" Value="49"/>
      <ItemData ItemOID="IT.EC.ECENDY" Value="49"/>
    </ItemGroupData>
    <ItemGroupData ItemGroupOID="IG.EC" data:ItemGroupDataSeq="50">
      <ItemData ItemOID="IT.EC.STUDYID" Value="CDISCPILOT01"/>
      <ItemData ItemOID="IT.EC.DOMAIN" Value="EC"/>
      <ItemData ItemOID="IT.EC.USUBJID" Value="CDISC001"/>
      <ItemData ItemOID="IT.EC.SPDEVID" Value="DEV0001"/>
      <ItemData ItemOID="IT.EC.ECSEQ" Value="50"/>
      <ItemData ItemOID="IT.EC.ECTRT" Value="ZANOMALINE"/>
      <ItemData ItemOID="IT.EC.ECPRESP" Value="Y"/>
      <ItemData ItemOID="IT.EC.ECOCCUR" Value="Y"/>
      <ItemData ItemOID="IT.EC.ECDOSE" Value="5"/>
      <ItemData ItemOID="IT.EC.ECDOSU" Value="mL"/>
      <ItemData ItemOID="IT.EC.ECDOSFRM" Value="INJECTION"/>
      <ItemData ItemOID="IT.EC.ECDOSFRQ" Value="QD"/>
      <ItemData ItemOID="IT.EC.ECROUTE" Value="SUBCUTANEOUS"/>
      <ItemData ItemOID="IT.EC.ECLOT" Value="SDS580-359"/>
      <ItemData ItemOID="IT.EC.ECPSTRG" Value="10.8"/>
      <ItemData ItemOID="IT.EC.ECPSTRGU" Value="g/L"/>
      <ItemData ItemOID="IT.EC.EPOCH" Value="TREATMENT"/>
      <ItemData ItemOID="IT.EC.ECSTDTC" Value="2013-01-18"/>
      <ItemData ItemOID="IT.EC.ECENDTC" Value="2013-01-18"/>
      <ItemData ItemOID="IT.EC.ECSTDY" Value="50"/>
      <ItemData ItemOID="IT.EC.ECENDY" Value="50"/>
    </ItemGroupData>
    <ItemGroupData ItemGroupOID="IG.EC" data:ItemGroupDataSeq="51">
      <ItemData ItemOID="IT.EC.STUDYID" Value="CDISCPILOT01"/>
      <ItemData ItemOID="IT.EC.DOMAIN" Value="EC"/>
      <ItemData ItemOID="IT.EC.USUBJID" Value="CDISC001"/>
      <ItemData ItemOID="IT.EC.SPDEVID" Value="DEV0001"/>
      <ItemData ItemOID="IT.EC.ECSEQ" Value="51"/>
      <ItemData ItemOID="IT.EC.ECTRT" Value="ZANOMALINE"/>
      <ItemData ItemOID="IT.EC.ECPRESP" Value="Y"/>
      <ItemData ItemOID="IT.EC.ECOCCUR" Value="Y"/>
      <ItemData ItemOID="IT.EC.ECDOSE" Value="5"/>
      <ItemData ItemOID="IT.EC.ECDOSU" Value="mL"/>
      <ItemData ItemOID="IT.EC.ECDOSFRM" Value="INJECTION"/>
      <ItemData ItemOID="IT.EC.ECDOSFRQ" Value="QD"/>
      <ItemData ItemOID="IT.EC.ECROUTE" Value="SUBCUTANEOUS"/>
      <ItemData ItemOID="IT.EC.ECLOT" Value="SDS580-359"/>
      <ItemData ItemOID="IT.EC.ECPSTRG" Value="10.8"/>
      <ItemData ItemOID="IT.EC.ECPSTRGU" Value="g/L"/>
      <ItemData ItemOID="IT.EC.EPOCH" Value="TREATMENT"/>
      <ItemData ItemOID="IT.EC.ECSTDTC" Value="2013-01-19"/>
      <ItemData ItemOID="IT.EC.ECENDTC" Value="2013-01-19"/>
      <ItemData ItemOID="IT.EC.ECSTDY" Value="51"/>
      <ItemData ItemOID="IT.EC.ECENDY" Value="51"/>
    </ItemGroupData>
    <ItemGroupData ItemGroupOID="IG.EC" data:ItemGroupDataSeq="52">
      <ItemData ItemOID="IT.EC.STUDYID" Value="CDISCPILOT01"/>
      <ItemData ItemOID="IT.EC.DOMAIN" Value="EC"/>
      <ItemData ItemOID="IT.EC.USUBJID" Value="CDISC001"/>
      <ItemData ItemOID="IT.EC.SPDEVID" Value="DEV0001"/>
      <ItemData ItemOID="IT.EC.ECSEQ" Value="52"/>
      <ItemData ItemOID="IT.EC.ECTRT" Value="ZANOMALINE"/>
      <ItemData ItemOID="IT.EC.ECPRESP" Value="Y"/>
      <ItemData ItemOID="IT.EC.ECOCCUR" Value="Y"/>
      <ItemData ItemOID="IT.EC.ECDOSE" Value="5"/>
      <ItemData ItemOID="IT.EC.ECDOSU" Value="mL"/>
      <ItemData ItemOID="IT.EC.ECDOSFRM" Value="INJECTION"/>
      <ItemData ItemOID="IT.EC.ECDOSFRQ" Value="QD"/>
      <ItemData ItemOID="IT.EC.ECROUTE" Value="SUBCUTANEOUS"/>
      <ItemData ItemOID="IT.EC.ECLOT" Value="SDS580-359"/>
      <ItemData ItemOID="IT.EC.ECPSTRG" Value="10.8"/>
      <ItemData ItemOID="IT.EC.ECPSTRGU" Value="g/L"/>
      <ItemData ItemOID="IT.EC.EPOCH" Value="TREATMENT"/>
      <ItemData ItemOID="IT.EC.ECSTDTC" Value="2013-01-20"/>
      <ItemData ItemOID="IT.EC.ECENDTC" Value="2013-01-20"/>
      <ItemData ItemOID="IT.EC.ECSTDY" Value="52"/>
      <ItemData ItemOID="IT.EC.ECENDY" Value="52"/>
    </ItemGroupData>
    <ItemGroupData ItemGroupOID="IG.EC" data:ItemGroupDataSeq="53">
      <ItemData ItemOID="IT.EC.STUDYID" Value="CDISCPILOT01"/>
      <ItemData ItemOID="IT.EC.DOMAIN" Value="EC"/>
      <ItemData ItemOID="IT.EC.USUBJID" Value="CDISC001"/>
      <ItemData ItemOID="IT.EC.SPDEVID" Value="DEV0001"/>
      <ItemData ItemOID="IT.EC.ECSEQ" Value="53"/>
      <ItemData ItemOID="IT.EC.ECTRT" Value="ZANOMALINE"/>
      <ItemData ItemOID="IT.EC.ECPRESP" Value="Y"/>
      <ItemData ItemOID="IT.EC.ECOCCUR" Value="Y"/>
      <ItemData ItemOID="IT.EC.ECDOSE" Value="5"/>
      <ItemData ItemOID="IT.EC.ECDOSU" Value="mL"/>
      <ItemData ItemOID="IT.EC.ECDOSFRM" Value="INJECTION"/>
      <ItemData ItemOID="IT.EC.ECDOSFRQ" Value="QD"/>
      <ItemData ItemOID="IT.EC.ECROUTE" Value="SUBCUTANEOUS"/>
      <ItemData ItemOID="IT.EC.ECLOT" Value="SDS580-359"/>
      <ItemData ItemOID="IT.EC.ECPSTRG" Value="10.8"/>
      <ItemData ItemOID="IT.EC.ECPSTRGU" Value="g/L"/>
      <ItemData ItemOID="IT.EC.EPOCH" Value="TREATMENT"/>
      <ItemData ItemOID="IT.EC.ECSTDTC" Value="2013-01-21"/>
      <ItemData ItemOID="IT.EC.ECENDTC" Value="2013-01-21"/>
      <ItemData ItemOID="IT.EC.ECSTDY" Value="53"/>
      <ItemData ItemOID="IT.EC.ECENDY" Value="53"/>
    </ItemGroupData>
    <ItemGroupData ItemGroupOID="IG.EC" data:ItemGroupDataSeq="54">
      <ItemData ItemOID="IT.EC.STUDYID" Value="CDISCPILOT01"/>
      <ItemData ItemOID="IT.EC.DOMAIN" Value="EC"/>
      <ItemData ItemOID="IT.EC.USUBJID" Value="CDISC001"/>
      <ItemData ItemOID="IT.EC.SPDEVID" Value="DEV0001"/>
      <ItemData ItemOID="IT.EC.ECSEQ" Value="54"/>
      <ItemData ItemOID="IT.EC.ECTRT" Value="ZANOMALINE"/>
      <ItemData ItemOID="IT.EC.ECPRESP" Value="Y"/>
      <ItemData ItemOID="IT.EC.ECOCCUR" Value="Y"/>
      <ItemData ItemOID="IT.EC.ECDOSE" Value="5"/>
      <ItemData ItemOID="IT.EC.ECDOSU" Value="mL"/>
      <ItemData ItemOID="IT.EC.ECDOSFRM" Value="INJECTION"/>
      <ItemData ItemOID="IT.EC.ECDOSFRQ" Value="QD"/>
      <ItemData ItemOID="IT.EC.ECROUTE" Value="SUBCUTANEOUS"/>
      <ItemData ItemOID="IT.EC.ECLOT" Value="SDS580-359"/>
      <ItemData ItemOID="IT.EC.ECPSTRG" Value="10.8"/>
      <ItemData ItemOID="IT.EC.ECPSTRGU" Value="g/L"/>
      <ItemData ItemOID="IT.EC.EPOCH" Value="TREATMENT"/>
      <ItemData ItemOID="IT.EC.ECSTDTC" Value="2013-01-22"/>
      <ItemData ItemOID="IT.EC.ECENDTC" Value="2013-01-22"/>
      <ItemData ItemOID="IT.EC.ECSTDY" Value="54"/>
      <ItemData ItemOID="IT.EC.ECENDY" Value="54"/>
    </ItemGroupData>
    <ItemGroupData ItemGroupOID="IG.EC" data:ItemGroupDataSeq="55">
      <ItemData ItemOID="IT.EC.STUDYID" Value="CDISCPILOT01"/>
      <ItemData ItemOID="IT.EC.DOMAIN" Value="EC"/>
      <ItemData ItemOID="IT.EC.USUBJID" Value="CDISC001"/>
      <ItemData ItemOID="IT.EC.SPDEVID" Value="DEV0001"/>
      <ItemData ItemOID="IT.EC.ECSEQ" Value="55"/>
      <ItemData ItemOID="IT.EC.ECTRT" Value="ZANOMALINE"/>
      <ItemData ItemOID="IT.EC.ECPRESP" Value="Y"/>
      <ItemData ItemOID="IT.EC.ECOCCUR" Value="Y"/>
      <ItemData ItemOID="IT.EC.ECDOSE" Value="5"/>
      <ItemData ItemOID="IT.EC.ECDOSU" Value="mL"/>
      <ItemData ItemOID="IT.EC.ECDOSFRM" Value="INJECTION"/>
      <ItemData ItemOID="IT.EC.ECDOSFRQ" Value="QD"/>
      <ItemData ItemOID="IT.EC.ECROUTE" Value="SUBCUTANEOUS"/>
      <ItemData ItemOID="IT.EC.ECLOT" Value="SDS580-359"/>
      <ItemData ItemOID="IT.EC.ECPSTRG" Value="10.8"/>
      <ItemData ItemOID="IT.EC.ECPSTRGU" Value="g/L"/>
      <ItemData ItemOID="IT.EC.EPOCH" Value="TREATMENT"/>
      <ItemData ItemOID="IT.EC.ECSTDTC" Value="2013-01-23"/>
      <ItemData ItemOID="IT.EC.ECENDTC" Value="2013-01-23"/>
      <ItemData ItemOID="IT.EC.ECSTDY" Value="55"/>
      <ItemData ItemOID="IT.EC.ECENDY" Value="55"/>
    </ItemGroupData>
    <ItemGroupData ItemGroupOID="IG.EC" data:ItemGroupDataSeq="56">
      <ItemData ItemOID="IT.EC.STUDYID" Value="CDISCPILOT01"/>
      <ItemData ItemOID="IT.EC.DOMAIN" Value="EC"/>
      <ItemData ItemOID="IT.EC.USUBJID" Value="CDISC002"/>
      <ItemData ItemOID="IT.EC.SPDEVID" Value="DEV0002"/>
      <ItemData ItemOID="IT.EC.ECSEQ" Value="1"/>
      <ItemData ItemOID="IT.EC.ECTRT" Value="ZANOMALINE"/>
      <ItemData ItemOID="IT.EC.ECPRESP" Value="Y"/>
      <ItemData ItemOID="IT.EC.ECOCCUR" Value="Y"/>
      <ItemData ItemOID="IT.EC.ECDOSE" Value="5"/>
      <ItemData ItemOID="IT.EC.ECDOSU" Value="mL"/>
      <ItemData ItemOID="IT.EC.ECDOSFRM" Value="INJECTION"/>
      <ItemData ItemOID="IT.EC.ECDOSFRQ" Value="QD"/>
      <ItemData ItemOID="IT.EC.ECROUTE" Value="SUBCUTANEOUS"/>
      <ItemData ItemOID="IT.EC.ECLOT" Value="SDS580-359"/>
      <ItemData ItemOID="IT.EC.ECPSTRG" Value="10.8"/>
      <ItemData ItemOID="IT.EC.ECPSTRGU" Value="g/L"/>
      <ItemData ItemOID="IT.EC.EPOCH" Value="TREATMENT"/>
      <ItemData ItemOID="IT.EC.ECSTDTC" Value="2012-11-15"/>
      <ItemData ItemOID="IT.EC.ECENDTC" Value="2012-11-15"/>
      <ItemData ItemOID="IT.EC.ECSTDY" Value="1"/>
      <ItemData ItemOID="IT.EC.ECENDY" Value="1"/>
    </ItemGroupData>
    <ItemGroupData ItemGroupOID="IG.EC" data:ItemGroupDataSeq="57">
      <ItemData ItemOID="IT.EC.STUDYID" Value="CDISCPILOT01"/>
      <ItemData ItemOID="IT.EC.DOMAIN" Value="EC"/>
      <ItemData ItemOID="IT.EC.USUBJID" Value="CDISC002"/>
      <ItemData ItemOID="IT.EC.SPDEVID" Value="DEV0002"/>
      <ItemData ItemOID="IT.EC.ECSEQ" Value="2"/>
      <ItemData ItemOID="IT.EC.ECTRT" Value="ZANOMALINE"/>
      <ItemData ItemOID="IT.EC.ECPRESP" Value="Y"/>
      <ItemData ItemOID="IT.EC.ECOCCUR" Value="Y"/>
      <ItemData ItemOID="IT.EC.ECDOSE" Value="5"/>
      <ItemData ItemOID="IT.EC.ECDOSU" Value="mL"/>
      <ItemData ItemOID="IT.EC.ECDOSFRM" Value="INJECTION"/>
      <ItemData ItemOID="IT.EC.ECDOSFRQ" Value="QD"/>
      <ItemData ItemOID="IT.EC.ECROUTE" Value="SUBCUTANEOUS"/>
      <ItemData ItemOID="IT.EC.ECLOT" Value="SDS580-359"/>
      <ItemData ItemOID="IT.EC.ECPSTRG" Value="10.8"/>
      <ItemData ItemOID="IT.EC.ECPSTRGU" Value="g/L"/>
      <ItemData ItemOID="IT.EC.EPOCH" Value="TREATMENT"/>
      <ItemData ItemOID="IT.EC.ECSTDTC" Value="2012-11-16"/>
      <ItemData ItemOID="IT.EC.ECENDTC" Value="2012-11-16"/>
      <ItemData ItemOID="IT.EC.ECSTDY" Value="2"/>
      <ItemData ItemOID="IT.EC.ECENDY" Value="2"/>
    </ItemGroupData>
    <ItemGroupData ItemGroupOID="IG.EC" data:ItemGroupDataSeq="58">
      <ItemData ItemOID="IT.EC.STUDYID" Value="CDISCPILOT01"/>
      <ItemData ItemOID="IT.EC.DOMAIN" Value="EC"/>
      <ItemData ItemOID="IT.EC.USUBJID" Value="CDISC002"/>
      <ItemData ItemOID="IT.EC.SPDEVID" Value="DEV0002"/>
      <ItemData ItemOID="IT.EC.ECSEQ" Value="3"/>
      <ItemData ItemOID="IT.EC.ECTRT" Value="ZANOMALINE"/>
      <ItemData ItemOID="IT.EC.ECPRESP" Value="Y"/>
      <ItemData ItemOID="IT.EC.ECOCCUR" Value="Y"/>
      <ItemData ItemOID="IT.EC.ECDOSE" Value="5"/>
      <ItemData ItemOID="IT.EC.ECDOSU" Value="mL"/>
      <ItemData ItemOID="IT.EC.ECDOSFRM" Value="INJECTION"/>
      <ItemData ItemOID="IT.EC.ECDOSFRQ" Value="QD"/>
      <ItemData ItemOID="IT.EC.ECROUTE" Value="SUBCUTANEOUS"/>
      <ItemData ItemOID="IT.EC.ECLOT" Value="SDS580-359"/>
      <ItemData ItemOID="IT.EC.ECPSTRG" Value="10.8"/>
      <ItemData ItemOID="IT.EC.ECPSTRGU" Value="g/L"/>
      <ItemData ItemOID="IT.EC.EPOCH" Value="TREATMENT"/>
      <ItemData ItemOID="IT.EC.ECSTDTC" Value="2012-11-17"/>
      <ItemData ItemOID="IT.EC.ECENDTC" Value="2012-11-17"/>
      <ItemData ItemOID="IT.EC.ECSTDY" Value="3"/>
      <ItemData ItemOID="IT.EC.ECENDY" Value="3"/>
    </ItemGroupData>
    <ItemGroupData ItemGroupOID="IG.EC" data:ItemGroupDataSeq="59">
      <ItemData ItemOID="IT.EC.STUDYID" Value="CDISCPILOT01"/>
      <ItemData ItemOID="IT.EC.DOMAIN" Value="EC"/>
      <ItemData ItemOID="IT.EC.USUBJID" Value="CDISC002"/>
      <ItemData ItemOID="IT.EC.SPDEVID" Value="DEV0002"/>
      <ItemData ItemOID="IT.EC.ECSEQ" Value="4"/>
      <ItemData ItemOID="IT.EC.ECTRT" Value="ZANOMALINE"/>
      <ItemData ItemOID="IT.EC.ECPRESP" Value="Y"/>
      <ItemData ItemOID="IT.EC.ECOCCUR" Value="Y"/>
      <ItemData ItemOID="IT.EC.ECDOSE" Value="5"/>
      <ItemData ItemOID="IT.EC.ECDOSU" Value="mL"/>
      <ItemData ItemOID="IT.EC.ECDOSFRM" Value="INJECTION"/>
      <ItemData ItemOID="IT.EC.ECDOSFRQ" Value="QD"/>
      <ItemData ItemOID="IT.EC.ECROUTE" Value="SUBCUTANEOUS"/>
      <ItemData ItemOID="IT.EC.ECLOT" Value="SDS580-359"/>
      <ItemData ItemOID="IT.EC.ECPSTRG" Value="10.8"/>
      <ItemData ItemOID="IT.EC.ECPSTRGU" Value="g/L"/>
      <ItemData ItemOID="IT.EC.EPOCH" Value="TREATMENT"/>
      <ItemData ItemOID="IT.EC.ECSTDTC" Value="2012-11-18"/>
      <ItemData ItemOID="IT.EC.ECENDTC" Value="2012-11-18"/>
      <ItemData ItemOID="IT.EC.ECSTDY" Value="4"/>
      <ItemData ItemOID="IT.EC.ECENDY" Value="4"/>
    </ItemGroupData>
    <ItemGroupData ItemGroupOID="IG.EC" data:ItemGroupDataSeq="60">
      <ItemData ItemOID="IT.EC.STUDYID" Value="CDISCPILOT01"/>
      <ItemData ItemOID="IT.EC.DOMAIN" Value="EC"/>
      <ItemData ItemOID="IT.EC.USUBJID" Value="CDISC002"/>
      <ItemData ItemOID="IT.EC.SPDEVID" Value="DEV0002"/>
      <ItemData ItemOID="IT.EC.ECSEQ" Value="5"/>
      <ItemData ItemOID="IT.EC.ECTRT" Value="ZANOMALINE"/>
      <ItemData ItemOID="IT.EC.ECPRESP" Value="Y"/>
      <ItemData ItemOID="IT.EC.ECOCCUR" Value="Y"/>
      <ItemData ItemOID="IT.EC.ECDOSE" Value="5"/>
      <ItemData ItemOID="IT.EC.ECDOSU" Value="mL"/>
      <ItemData ItemOID="IT.EC.ECDOSFRM" Value="INJECTION"/>
      <ItemData ItemOID="IT.EC.ECDOSFRQ" Value="QD"/>
      <ItemData ItemOID="IT.EC.ECROUTE" Value="SUBCUTANEOUS"/>
      <ItemData ItemOID="IT.EC.ECLOT" Value="SDS580-359"/>
      <ItemData ItemOID="IT.EC.ECPSTRG" Value="10.8"/>
      <ItemData ItemOID="IT.EC.ECPSTRGU" Value="g/L"/>
      <ItemData ItemOID="IT.EC.EPOCH" Value="TREATMENT"/>
      <ItemData ItemOID="IT.EC.ECSTDTC" Value="2012-11-19"/>
      <ItemData ItemOID="IT.EC.ECENDTC" Value="2012-11-19"/>
      <ItemData ItemOID="IT.EC.ECSTDY" Value="5"/>
      <ItemData ItemOID="IT.EC.ECENDY" Value="5"/>
    </ItemGroupData>
    <ItemGroupData ItemGroupOID="IG.EC" data:ItemGroupDataSeq="61">
      <ItemData ItemOID="IT.EC.STUDYID" Value="CDISCPILOT01"/>
      <ItemData ItemOID="IT.EC.DOMAIN" Value="EC"/>
      <ItemData ItemOID="IT.EC.USUBJID" Value="CDISC002"/>
      <ItemData ItemOID="IT.EC.SPDEVID" Value="DEV0002"/>
      <ItemData ItemOID="IT.EC.ECSEQ" Value="6"/>
      <ItemData ItemOID="IT.EC.ECTRT" Value="ZANOMALINE"/>
      <ItemData ItemOID="IT.EC.ECPRESP" Value="Y"/>
      <ItemData ItemOID="IT.EC.ECOCCUR" Value="Y"/>
      <ItemData ItemOID="IT.EC.ECDOSE" Value="5"/>
      <ItemData ItemOID="IT.EC.ECDOSU" Value="mL"/>
      <ItemData ItemOID="IT.EC.ECDOSFRM" Value="INJECTION"/>
      <ItemData ItemOID="IT.EC.ECDOSFRQ" Value="QD"/>
      <ItemData ItemOID="IT.EC.ECROUTE" Value="SUBCUTANEOUS"/>
      <ItemData ItemOID="IT.EC.ECLOT" Value="SDS580-359"/>
      <ItemData ItemOID="IT.EC.ECPSTRG" Value="10.8"/>
      <ItemData ItemOID="IT.EC.ECPSTRGU" Value="g/L"/>
      <ItemData ItemOID="IT.EC.EPOCH" Value="TREATMENT"/>
      <ItemData ItemOID="IT.EC.ECSTDTC" Value="2012-11-20"/>
      <ItemData ItemOID="IT.EC.ECENDTC" Value="2012-11-20"/>
      <ItemData ItemOID="IT.EC.ECSTDY" Value="6"/>
      <ItemData ItemOID="IT.EC.ECENDY" Value="6"/>
    </ItemGroupData>
    <ItemGroupData ItemGroupOID="IG.EC" data:ItemGroupDataSeq="62">
      <ItemData ItemOID="IT.EC.STUDYID" Value="CDISCPILOT01"/>
      <ItemData ItemOID="IT.EC.DOMAIN" Value="EC"/>
      <ItemData ItemOID="IT.EC.USUBJID" Value="CDISC002"/>
      <ItemData ItemOID="IT.EC.SPDEVID" Value="DEV0002"/>
      <ItemData ItemOID="IT.EC.ECSEQ" Value="7"/>
      <ItemData ItemOID="IT.EC.ECTRT" Value="ZANOMALINE"/>
      <ItemData ItemOID="IT.EC.ECPRESP" Value="Y"/>
      <ItemData ItemOID="IT.EC.ECOCCUR" Value="Y"/>
      <ItemData ItemOID="IT.EC.ECDOSE" Value="5"/>
      <ItemData ItemOID="IT.EC.ECDOSU" Value="mL"/>
      <ItemData ItemOID="IT.EC.ECDOSFRM" Value="INJECTION"/>
      <ItemData ItemOID="IT.EC.ECDOSFRQ" Value="QD"/>
      <ItemData ItemOID="IT.EC.ECROUTE" Value="SUBCUTANEOUS"/>
      <ItemData ItemOID="IT.EC.ECLOT" Value="SDS580-359"/>
      <ItemData ItemOID="IT.EC.ECPSTRG" Value="10.8"/>
      <ItemData ItemOID="IT.EC.ECPSTRGU" Value="g/L"/>
      <ItemData ItemOID="IT.EC.EPOCH" Value="TREATMENT"/>
      <ItemData ItemOID="IT.EC.ECSTDTC" Value="2012-11-21"/>
      <ItemData ItemOID="IT.EC.ECENDTC" Value="2012-11-21"/>
      <ItemData ItemOID="IT.EC.ECSTDY" Value="7"/>
      <ItemData ItemOID="IT.EC.ECENDY" Value="7"/>
    </ItemGroupData>
    <ItemGroupData ItemGroupOID="IG.EC" data:ItemGroupDataSeq="63">
      <ItemData ItemOID="IT.EC.STUDYID" Value="CDISCPILOT01"/>
      <ItemData ItemOID="IT.EC.DOMAIN" Value="EC"/>
      <ItemData ItemOID="IT.EC.USUBJID" Value="CDISC002"/>
      <ItemData ItemOID="IT.EC.SPDEVID" Value="DEV0002"/>
      <ItemData ItemOID="IT.EC.ECSEQ" Value="8"/>
      <ItemData ItemOID="IT.EC.ECTRT" Value="ZANOMALINE"/>
      <ItemData ItemOID="IT.EC.ECPRESP" Value="Y"/>
      <ItemData ItemOID="IT.EC.ECOCCUR" Value="Y"/>
      <ItemData ItemOID="IT.EC.ECDOSE" Value="5"/>
      <ItemData ItemOID="IT.EC.ECDOSU" Value="mL"/>
      <ItemData ItemOID="IT.EC.ECDOSFRM" Value="INJECTION"/>
      <ItemData ItemOID="IT.EC.ECDOSFRQ" Value="QD"/>
      <ItemData ItemOID="IT.EC.ECROUTE" Value="SUBCUTANEOUS"/>
      <ItemData ItemOID="IT.EC.ECLOT" Value="SDS580-359"/>
      <ItemData ItemOID="IT.EC.ECPSTRG" Value="10.8"/>
      <ItemData ItemOID="IT.EC.ECPSTRGU" Value="g/L"/>
      <ItemData ItemOID="IT.EC.EPOCH" Value="TREATMENT"/>
      <ItemData ItemOID="IT.EC.ECSTDTC" Value="2012-11-22"/>
      <ItemData ItemOID="IT.EC.ECENDTC" Value="2012-11-22"/>
      <ItemData ItemOID="IT.EC.ECSTDY" Value="8"/>
      <ItemData ItemOID="IT.EC.ECENDY" Value="8"/>
    </ItemGroupData>
    <ItemGroupData ItemGroupOID="IG.EC" data:ItemGroupDataSeq="64">
      <ItemData ItemOID="IT.EC.STUDYID" Value="CDISCPILOT01"/>
      <ItemData ItemOID="IT.EC.DOMAIN" Value="EC"/>
      <ItemData ItemOID="IT.EC.USUBJID" Value="CDISC002"/>
      <ItemData ItemOID="IT.EC.SPDEVID" Value="DEV0002"/>
      <ItemData ItemOID="IT.EC.ECSEQ" Value="9"/>
      <ItemData ItemOID="IT.EC.ECTRT" Value="ZANOMALINE"/>
      <ItemData ItemOID="IT.EC.ECPRESP" Value="Y"/>
      <ItemData ItemOID="IT.EC.ECOCCUR" Value="Y"/>
      <ItemData ItemOID="IT.EC.ECDOSE" Value="5"/>
      <ItemData ItemOID="IT.EC.ECDOSU" Value="mL"/>
      <ItemData ItemOID="IT.EC.ECDOSFRM" Value="INJECTION"/>
      <ItemData ItemOID="IT.EC.ECDOSFRQ" Value="QD"/>
      <ItemData ItemOID="IT.EC.ECROUTE" Value="SUBCUTANEOUS"/>
      <ItemData ItemOID="IT.EC.ECLOT" Value="SDS580-359"/>
      <ItemData ItemOID="IT.EC.ECPSTRG" Value="10.8"/>
      <ItemData ItemOID="IT.EC.ECPSTRGU" Value="g/L"/>
      <ItemData ItemOID="IT.EC.EPOCH" Value="TREATMENT"/>
      <ItemData ItemOID="IT.EC.ECSTDTC" Value="2012-11-23"/>
      <ItemData ItemOID="IT.EC.ECENDTC" Value="2012-11-23"/>
      <ItemData ItemOID="IT.EC.ECSTDY" Value="9"/>
      <ItemData ItemOID="IT.EC.ECENDY" Value="9"/>
    </ItemGroupData>
    <ItemGroupData ItemGroupOID="IG.EC" data:ItemGroupDataSeq="65">
      <ItemData ItemOID="IT.EC.STUDYID" Value="CDISCPILOT01"/>
      <ItemData ItemOID="IT.EC.DOMAIN" Value="EC"/>
      <ItemData ItemOID="IT.EC.USUBJID" Value="CDISC002"/>
      <ItemData ItemOID="IT.EC.SPDEVID" Value="DEV0002"/>
      <ItemData ItemOID="IT.EC.ECSEQ" Value="10"/>
      <ItemData ItemOID="IT.EC.ECTRT" Value="ZANOMALINE"/>
      <ItemData ItemOID="IT.EC.ECPRESP" Value="Y"/>
      <ItemData ItemOID="IT.EC.ECOCCUR" Value="Y"/>
      <ItemData ItemOID="IT.EC.ECDOSE" Value="5"/>
      <ItemData ItemOID="IT.EC.ECDOSU" Value="mL"/>
      <ItemData ItemOID="IT.EC.ECDOSFRM" Value="INJECTION"/>
      <ItemData ItemOID="IT.EC.ECDOSFRQ" Value="QD"/>
      <ItemData ItemOID="IT.EC.ECROUTE" Value="SUBCUTANEOUS"/>
      <ItemData ItemOID="IT.EC.ECLOT" Value="SDS580-359"/>
      <ItemData ItemOID="IT.EC.ECPSTRG" Value="10.8"/>
      <ItemData ItemOID="IT.EC.ECPSTRGU" Value="g/L"/>
      <ItemData ItemOID="IT.EC.EPOCH" Value="TREATMENT"/>
      <ItemData ItemOID="IT.EC.ECSTDTC" Value="2012-11-24"/>
      <ItemData ItemOID="IT.EC.ECENDTC" Value="2012-11-24"/>
      <ItemData ItemOID="IT.EC.ECSTDY" Value="10"/>
      <ItemData ItemOID="IT.EC.ECENDY" Value="10"/>
    </ItemGroupData>
    <ItemGroupData ItemGroupOID="IG.EC" data:ItemGroupDataSeq="66">
      <ItemData ItemOID="IT.EC.STUDYID" Value="CDISCPILOT01"/>
      <ItemData ItemOID="IT.EC.DOMAIN" Value="EC"/>
      <ItemData ItemOID="IT.EC.USUBJID" Value="CDISC002"/>
      <ItemData ItemOID="IT.EC.SPDEVID" Value="DEV0002"/>
      <ItemData ItemOID="IT.EC.ECSEQ" Value="11"/>
      <ItemData ItemOID="IT.EC.ECTRT" Value="ZANOMALINE"/>
      <ItemData ItemOID="IT.EC.ECPRESP" Value="Y"/>
      <ItemData ItemOID="IT.EC.ECOCCUR" Value="Y"/>
      <ItemData ItemOID="IT.EC.ECDOSE" Value="5"/>
      <ItemData ItemOID="IT.EC.ECDOSU" Value="mL"/>
      <ItemData ItemOID="IT.EC.ECDOSFRM" Value="INJECTION"/>
      <ItemData ItemOID="IT.EC.ECDOSFRQ" Value="QD"/>
      <ItemData ItemOID="IT.EC.ECROUTE" Value="SUBCUTANEOUS"/>
      <ItemData ItemOID="IT.EC.ECLOT" Value="SDS580-359"/>
      <ItemData ItemOID="IT.EC.ECPSTRG" Value="10.8"/>
      <ItemData ItemOID="IT.EC.ECPSTRGU" Value="g/L"/>
      <ItemData ItemOID="IT.EC.EPOCH" Value="TREATMENT"/>
      <ItemData ItemOID="IT.EC.ECSTDTC" Value="2012-11-25"/>
      <ItemData ItemOID="IT.EC.ECENDTC" Value="2012-11-25"/>
      <ItemData ItemOID="IT.EC.ECSTDY" Value="11"/>
      <ItemData ItemOID="IT.EC.ECENDY" Value="11"/>
    </ItemGroupData>
    <ItemGroupData ItemGroupOID="IG.EC" data:ItemGroupDataSeq="67">
      <ItemData ItemOID="IT.EC.STUDYID" Value="CDISCPILOT01"/>
      <ItemData ItemOID="IT.EC.DOMAIN" Value="EC"/>
      <ItemData ItemOID="IT.EC.USUBJID" Value="CDISC002"/>
      <ItemData ItemOID="IT.EC.SPDEVID" Value="DEV0002"/>
      <ItemData ItemOID="IT.EC.ECSEQ" Value="12"/>
      <ItemData ItemOID="IT.EC.ECTRT" Value="ZANOMALINE"/>
      <ItemData ItemOID="IT.EC.ECPRESP" Value="Y"/>
      <ItemData ItemOID="IT.EC.ECOCCUR" Value="Y"/>
      <ItemData ItemOID="IT.EC.ECDOSE" Value="5"/>
      <ItemData ItemOID="IT.EC.ECDOSU" Value="mL"/>
      <ItemData ItemOID="IT.EC.ECDOSFRM" Value="INJECTION"/>
      <ItemData ItemOID="IT.EC.ECDOSFRQ" Value="QD"/>
      <ItemData ItemOID="IT.EC.ECROUTE" Value="SUBCUTANEOUS"/>
      <ItemData ItemOID="IT.EC.ECLOT" Value="SDS580-359"/>
      <ItemData ItemOID="IT.EC.ECPSTRG" Value="10.8"/>
      <ItemData ItemOID="IT.EC.ECPSTRGU" Value="g/L"/>
      <ItemData ItemOID="IT.EC.EPOCH" Value="TREATMENT"/>
      <ItemData ItemOID="IT.EC.ECSTDTC" Value="2012-11-26"/>
      <ItemData ItemOID="IT.EC.ECENDTC" Value="2012-11-26"/>
      <ItemData ItemOID="IT.EC.ECSTDY" Value="12"/>
      <ItemData ItemOID="IT.EC.ECENDY" Value="12"/>
    </ItemGroupData>
    <ItemGroupData ItemGroupOID="IG.EC" data:ItemGroupDataSeq="68">
      <ItemData ItemOID="IT.EC.STUDYID" Value="CDISCPILOT01"/>
      <ItemData ItemOID="IT.EC.DOMAIN" Value="EC"/>
      <ItemData ItemOID="IT.EC.USUBJID" Value="CDISC002"/>
      <ItemData ItemOID="IT.EC.SPDEVID" Value="DEV0002"/>
      <ItemData ItemOID="IT.EC.ECSEQ" Value="13"/>
      <ItemData ItemOID="IT.EC.ECTRT" Value="ZANOMALINE"/>
      <ItemData ItemOID="IT.EC.ECPRESP" Value="Y"/>
      <ItemData ItemOID="IT.EC.ECOCCUR" Value="Y"/>
      <ItemData ItemOID="IT.EC.ECDOSE" Value="5"/>
      <ItemData ItemOID="IT.EC.ECDOSU" Value="mL"/>
      <ItemData ItemOID="IT.EC.ECDOSFRM" Value="INJECTION"/>
      <ItemData ItemOID="IT.EC.ECDOSFRQ" Value="QD"/>
      <ItemData ItemOID="IT.EC.ECROUTE" Value="SUBCUTANEOUS"/>
      <ItemData ItemOID="IT.EC.ECLOT" Value="SDS580-359"/>
      <ItemData ItemOID="IT.EC.ECPSTRG" Value="10.8"/>
      <ItemData ItemOID="IT.EC.ECPSTRGU" Value="g/L"/>
      <ItemData ItemOID="IT.EC.EPOCH" Value="TREATMENT"/>
      <ItemData ItemOID="IT.EC.ECSTDTC" Value="2012-11-27"/>
      <ItemData ItemOID="IT.EC.ECENDTC" Value="2012-11-27"/>
      <ItemData ItemOID="IT.EC.ECSTDY" Value="13"/>
      <ItemData ItemOID="IT.EC.ECENDY" Value="13"/>
    </ItemGroupData>
    <ItemGroupData ItemGroupOID="IG.EC" data:ItemGroupDataSeq="69">
      <ItemData ItemOID="IT.EC.STUDYID" Value="CDISCPILOT01"/>
      <ItemData ItemOID="IT.EC.DOMAIN" Value="EC"/>
      <ItemData ItemOID="IT.EC.USUBJID" Value="CDISC002"/>
      <ItemData ItemOID="IT.EC.SPDEVID" Value="DEV0002"/>
      <ItemData ItemOID="IT.EC.ECSEQ" Value="14"/>
      <ItemData ItemOID="IT.EC.ECTRT" Value="ZANOMALINE"/>
      <ItemData ItemOID="IT.EC.ECPRESP" Value="Y"/>
      <ItemData ItemOID="IT.EC.ECOCCUR" Value="Y"/>
      <ItemData ItemOID="IT.EC.ECDOSE" Value="5"/>
      <ItemData ItemOID="IT.EC.ECDOSU" Value="mL"/>
      <ItemData ItemOID="IT.EC.ECDOSFRM" Value="INJECTION"/>
      <ItemData ItemOID="IT.EC.ECDOSFRQ" Value="QD"/>
      <ItemData ItemOID="IT.EC.ECROUTE" Value="SUBCUTANEOUS"/>
      <ItemData ItemOID="IT.EC.ECLOT" Value="SDS580-359"/>
      <ItemData ItemOID="IT.EC.ECPSTRG" Value="10.8"/>
      <ItemData ItemOID="IT.EC.ECPSTRGU" Value="g/L"/>
      <ItemData ItemOID="IT.EC.EPOCH" Value="TREATMENT"/>
      <ItemData ItemOID="IT.EC.ECSTDTC" Value="2012-11-28"/>
      <ItemData ItemOID="IT.EC.ECENDTC" Value="2012-11-28"/>
      <ItemData ItemOID="IT.EC.ECSTDY" Value="14"/>
      <ItemData ItemOID="IT.EC.ECENDY" Value="14"/>
    </ItemGroupData>
    <ItemGroupData ItemGroupOID="IG.EC" data:ItemGroupDataSeq="70">
      <ItemData ItemOID="IT.EC.STUDYID" Value="CDISCPILOT01"/>
      <ItemData ItemOID="IT.EC.DOMAIN" Value="EC"/>
      <ItemData ItemOID="IT.EC.USUBJID" Value="CDISC002"/>
      <ItemData ItemOID="IT.EC.SPDEVID" Value="DEV0002"/>
      <ItemData ItemOID="IT.EC.ECSEQ" Value="15"/>
      <ItemData ItemOID="IT.EC.ECTRT" Value="ZANOMALINE"/>
      <ItemData ItemOID="IT.EC.ECPRESP" Value="Y"/>
      <ItemData ItemOID="IT.EC.ECOCCUR" Value="Y"/>
      <ItemData ItemOID="IT.EC.ECDOSE" Value="5"/>
      <ItemData ItemOID="IT.EC.ECDOSU" Value="mL"/>
      <ItemData ItemOID="IT.EC.ECDOSFRM" Value="INJECTION"/>
      <ItemData ItemOID="IT.EC.ECDOSFRQ" Value="QD"/>
      <ItemData ItemOID="IT.EC.ECROUTE" Value="SUBCUTANEOUS"/>
      <ItemData ItemOID="IT.EC.ECLOT" Value="SDS580-359"/>
      <ItemData ItemOID="IT.EC.ECPSTRG" Value="10.8"/>
      <ItemData ItemOID="IT.EC.ECPSTRGU" Value="g/L"/>
      <ItemData ItemOID="IT.EC.EPOCH" Value="TREATMENT"/>
      <ItemData ItemOID="IT.EC.ECSTDTC" Value="2012-11-29"/>
      <ItemData ItemOID="IT.EC.ECENDTC" Value="2012-11-29"/>
      <ItemData ItemOID="IT.EC.ECSTDY" Value="15"/>
      <ItemData ItemOID="IT.EC.ECENDY" Value="15"/>
    </ItemGroupData>
    <ItemGroupData ItemGroupOID="IG.EC" data:ItemGroupDataSeq="71">
      <ItemData ItemOID="IT.EC.STUDYID" Value="CDISCPILOT01"/>
      <ItemData ItemOID="IT.EC.DOMAIN" Value="EC"/>
      <ItemData ItemOID="IT.EC.USUBJID" Value="CDISC002"/>
      <ItemData ItemOID="IT.EC.SPDEVID" Value="DEV0002"/>
      <ItemData ItemOID="IT.EC.ECSEQ" Value="16"/>
      <ItemData ItemOID="IT.EC.ECTRT" Value="ZANOMALINE"/>
      <ItemData ItemOID="IT.EC.ECPRESP" Value="Y"/>
      <ItemData ItemOID="IT.EC.ECOCCUR" Value="Y"/>
      <ItemData ItemOID="IT.EC.ECDOSE" Value="5"/>
      <ItemData ItemOID="IT.EC.ECDOSU" Value="mL"/>
      <ItemData ItemOID="IT.EC.ECDOSFRM" Value="INJECTION"/>
      <ItemData ItemOID="IT.EC.ECDOSFRQ" Value="QD"/>
      <ItemData ItemOID="IT.EC.ECROUTE" Value="SUBCUTANEOUS"/>
      <ItemData ItemOID="IT.EC.ECLOT" Value="SDS580-359"/>
      <ItemData ItemOID="IT.EC.ECPSTRG" Value="10.8"/>
      <ItemData ItemOID="IT.EC.ECPSTRGU" Value="g/L"/>
      <ItemData ItemOID="IT.EC.EPOCH" Value="TREATMENT"/>
      <ItemData ItemOID="IT.EC.ECSTDTC" Value="2012-11-30"/>
      <ItemData ItemOID="IT.EC.ECENDTC" Value="2012-11-30"/>
      <ItemData ItemOID="IT.EC.ECSTDY" Value="16"/>
      <ItemData ItemOID="IT.EC.ECENDY" Value="16"/>
    </ItemGroupData>
    <ItemGroupData ItemGroupOID="IG.EC" data:ItemGroupDataSeq="72">
      <ItemData ItemOID="IT.EC.STUDYID" Value="CDISCPILOT01"/>
      <ItemData ItemOID="IT.EC.DOMAIN" Value="EC"/>
      <ItemData ItemOID="IT.EC.USUBJID" Value="CDISC002"/>
      <ItemData ItemOID="IT.EC.SPDEVID" Value="DEV0002"/>
      <ItemData ItemOID="IT.EC.ECSEQ" Value="17"/>
      <ItemData ItemOID="IT.EC.ECTRT" Value="ZANOMALINE"/>
      <ItemData ItemOID="IT.EC.ECPRESP" Value="Y"/>
      <ItemData ItemOID="IT.EC.ECOCCUR" Value="Y"/>
      <ItemData ItemOID="IT.EC.ECDOSE" Value="5"/>
      <ItemData ItemOID="IT.EC.ECDOSU" Value="mL"/>
      <ItemData ItemOID="IT.EC.ECDOSFRM" Value="INJECTION"/>
      <ItemData ItemOID="IT.EC.ECDOSFRQ" Value="QD"/>
      <ItemData ItemOID="IT.EC.ECROUTE" Value="SUBCUTANEOUS"/>
      <ItemData ItemOID="IT.EC.ECLOT" Value="SDS580-359"/>
      <ItemData ItemOID="IT.EC.ECPSTRG" Value="10.8"/>
      <ItemData ItemOID="IT.EC.ECPSTRGU" Value="g/L"/>
      <ItemData ItemOID="IT.EC.EPOCH" Value="TREATMENT"/>
      <ItemData ItemOID="IT.EC.ECSTDTC" Value="2012-12-01"/>
      <ItemData ItemOID="IT.EC.ECENDTC" Value="2012-12-01"/>
      <ItemData ItemOID="IT.EC.ECSTDY" Value="17"/>
      <ItemData ItemOID="IT.EC.ECENDY" Value="17"/>
    </ItemGroupData>
    <ItemGroupData ItemGroupOID="IG.EC" data:ItemGroupDataSeq="73">
      <ItemData ItemOID="IT.EC.STUDYID" Value="CDISCPILOT01"/>
      <ItemData ItemOID="IT.EC.DOMAIN" Value="EC"/>
      <ItemData ItemOID="IT.EC.USUBJID" Value="CDISC002"/>
      <ItemData ItemOID="IT.EC.SPDEVID" Value="DEV0002"/>
      <ItemData ItemOID="IT.EC.ECSEQ" Value="18"/>
      <ItemData ItemOID="IT.EC.ECTRT" Value="ZANOMALINE"/>
      <ItemData ItemOID="IT.EC.ECPRESP" Value="Y"/>
      <ItemData ItemOID="IT.EC.ECOCCUR" Value="Y"/>
      <ItemData ItemOID="IT.EC.ECDOSE" Value="5"/>
      <ItemData ItemOID="IT.EC.ECDOSU" Value="mL"/>
      <ItemData ItemOID="IT.EC.ECDOSFRM" Value="INJECTION"/>
      <ItemData ItemOID="IT.EC.ECDOSFRQ" Value="QD"/>
      <ItemData ItemOID="IT.EC.ECROUTE" Value="SUBCUTANEOUS"/>
      <ItemData ItemOID="IT.EC.ECLOT" Value="SDS580-359"/>
      <ItemData ItemOID="IT.EC.ECPSTRG" Value="10.8"/>
      <ItemData ItemOID="IT.EC.ECPSTRGU" Value="g/L"/>
      <ItemData ItemOID="IT.EC.EPOCH" Value="TREATMENT"/>
      <ItemData ItemOID="IT.EC.ECSTDTC" Value="2012-12-02"/>
      <ItemData ItemOID="IT.EC.ECENDTC" Value="2012-12-02"/>
      <ItemData ItemOID="IT.EC.ECSTDY" Value="18"/>
      <ItemData ItemOID="IT.EC.ECENDY" Value="18"/>
    </ItemGroupData>
    <ItemGroupData ItemGroupOID="IG.EC" data:ItemGroupDataSeq="74">
      <ItemData ItemOID="IT.EC.STUDYID" Value="CDISCPILOT01"/>
      <ItemData ItemOID="IT.EC.DOMAIN" Value="EC"/>
      <ItemData ItemOID="IT.EC.USUBJID" Value="CDISC002"/>
      <ItemData ItemOID="IT.EC.SPDEVID" Value="DEV0002"/>
      <ItemData ItemOID="IT.EC.ECSEQ" Value="19"/>
      <ItemData ItemOID="IT.EC.ECTRT" Value="ZANOMALINE"/>
      <ItemData ItemOID="IT.EC.ECPRESP" Value="Y"/>
      <ItemData ItemOID="IT.EC.ECOCCUR" Value="Y"/>
      <ItemData ItemOID="IT.EC.ECDOSE" Value="5"/>
      <ItemData ItemOID="IT.EC.ECDOSU" Value="mL"/>
      <ItemData ItemOID="IT.EC.ECDOSFRM" Value="INJECTION"/>
      <ItemData ItemOID="IT.EC.ECDOSFRQ" Value="QD"/>
      <ItemData ItemOID="IT.EC.ECROUTE" Value="SUBCUTANEOUS"/>
      <ItemData ItemOID="IT.EC.ECLOT" Value="SDS580-359"/>
      <ItemData ItemOID="IT.EC.ECPSTRG" Value="10.8"/>
      <ItemData ItemOID="IT.EC.ECPSTRGU" Value="g/L"/>
      <ItemData ItemOID="IT.EC.EPOCH" Value="TREATMENT"/>
      <ItemData ItemOID="IT.EC.ECSTDTC" Value="2012-12-03"/>
      <ItemData ItemOID="IT.EC.ECENDTC" Value="2012-12-03"/>
      <ItemData ItemOID="IT.EC.ECSTDY" Value="19"/>
      <ItemData ItemOID="IT.EC.ECENDY" Value="19"/>
    </ItemGroupData>
    <ItemGroupData ItemGroupOID="IG.EC" data:ItemGroupDataSeq="75">
      <ItemData ItemOID="IT.EC.STUDYID" Value="CDISCPILOT01"/>
      <ItemData ItemOID="IT.EC.DOMAIN" Value="EC"/>
      <ItemData ItemOID="IT.EC.USUBJID" Value="CDISC002"/>
      <ItemData ItemOID="IT.EC.SPDEVID" Value="DEV0002"/>
      <ItemData ItemOID="IT.EC.ECSEQ" Value="20"/>
      <ItemData ItemOID="IT.EC.ECTRT" Value="ZANOMALINE"/>
      <ItemData ItemOID="IT.EC.ECPRESP" Value="Y"/>
      <ItemData ItemOID="IT.EC.ECOCCUR" Value="Y"/>
      <ItemData ItemOID="IT.EC.ECDOSE" Value="5"/>
      <ItemData ItemOID="IT.EC.ECDOSU" Value="mL"/>
      <ItemData ItemOID="IT.EC.ECDOSFRM" Value="INJECTION"/>
      <ItemData ItemOID="IT.EC.ECDOSFRQ" Value="QD"/>
      <ItemData ItemOID="IT.EC.ECROUTE" Value="SUBCUTANEOUS"/>
      <ItemData ItemOID="IT.EC.ECLOT" Value="SDS580-359"/>
      <ItemData ItemOID="IT.EC.ECPSTRG" Value="10.8"/>
      <ItemData ItemOID="IT.EC.ECPSTRGU" Value="g/L"/>
      <ItemData ItemOID="IT.EC.EPOCH" Value="TREATMENT"/>
      <ItemData ItemOID="IT.EC.ECSTDTC" Value="2012-12-04"/>
      <ItemData ItemOID="IT.EC.ECENDTC" Value="2012-12-04"/>
      <ItemData ItemOID="IT.EC.ECSTDY" Value="20"/>
      <ItemData ItemOID="IT.EC.ECENDY" Value="20"/>
    </ItemGroupData>
    <ItemGroupData ItemGroupOID="IG.EC" data:ItemGroupDataSeq="76">
      <ItemData ItemOID="IT.EC.STUDYID" Value="CDISCPILOT01"/>
      <ItemData ItemOID="IT.EC.DOMAIN" Value="EC"/>
      <ItemData ItemOID="IT.EC.USUBJID" Value="CDISC002"/>
      <ItemData ItemOID="IT.EC.SPDEVID" Value="DEV0002"/>
      <ItemData ItemOID="IT.EC.ECSEQ" Value="21"/>
      <ItemData ItemOID="IT.EC.ECTRT" Value="ZANOMALINE"/>
      <ItemData ItemOID="IT.EC.ECPRESP" Value="Y"/>
      <ItemData ItemOID="IT.EC.ECOCCUR" Value="Y"/>
      <ItemData ItemOID="IT.EC.ECDOSE" Value="5"/>
      <ItemData ItemOID="IT.EC.ECDOSU" Value="mL"/>
      <ItemData ItemOID="IT.EC.ECDOSFRM" Value="INJECTION"/>
      <ItemData ItemOID="IT.EC.ECDOSFRQ" Value="QD"/>
      <ItemData ItemOID="IT.EC.ECROUTE" Value="SUBCUTANEOUS"/>
      <ItemData ItemOID="IT.EC.ECLOT" Value="SDS580-359"/>
      <ItemData ItemOID="IT.EC.ECPSTRG" Value="10.8"/>
      <ItemData ItemOID="IT.EC.ECPSTRGU" Value="g/L"/>
      <ItemData ItemOID="IT.EC.EPOCH" Value="TREATMENT"/>
      <ItemData ItemOID="IT.EC.ECSTDTC" Value="2012-12-05"/>
      <ItemData ItemOID="IT.EC.ECENDTC" Value="2012-12-05"/>
      <ItemData ItemOID="IT.EC.ECSTDY" Value="21"/>
      <ItemData ItemOID="IT.EC.ECENDY" Value="21"/>
    </ItemGroupData>
    <ItemGroupData ItemGroupOID="IG.EC" data:ItemGroupDataSeq="77">
      <ItemData ItemOID="IT.EC.STUDYID" Value="CDISCPILOT01"/>
      <ItemData ItemOID="IT.EC.DOMAIN" Value="EC"/>
      <ItemData ItemOID="IT.EC.USUBJID" Value="CDISC002"/>
      <ItemData ItemOID="IT.EC.SPDEVID" Value="DEV0002"/>
      <ItemData ItemOID="IT.EC.ECSEQ" Value="22"/>
      <ItemData ItemOID="IT.EC.ECTRT" Value="ZANOMALINE"/>
      <ItemData ItemOID="IT.EC.ECPRESP" Value="Y"/>
      <ItemData ItemOID="IT.EC.ECOCCUR" Value="Y"/>
      <ItemData ItemOID="IT.EC.ECDOSE" Value="5"/>
      <ItemData ItemOID="IT.EC.ECDOSU" Value="mL"/>
      <ItemData ItemOID="IT.EC.ECDOSFRM" Value="INJECTION"/>
      <ItemData ItemOID="IT.EC.ECDOSFRQ" Value="QD"/>
      <ItemData ItemOID="IT.EC.ECROUTE" Value="SUBCUTANEOUS"/>
      <ItemData ItemOID="IT.EC.ECLOT" Value="SDS580-359"/>
      <ItemData ItemOID="IT.EC.ECPSTRG" Value="10.8"/>
      <ItemData ItemOID="IT.EC.ECPSTRGU" Value="g/L"/>
      <ItemData ItemOID="IT.EC.EPOCH" Value="TREATMENT"/>
      <ItemData ItemOID="IT.EC.ECSTDTC" Value="2012-12-06"/>
      <ItemData ItemOID="IT.EC.ECENDTC" Value="2012-12-06"/>
      <ItemData ItemOID="IT.EC.ECSTDY" Value="22"/>
      <ItemData ItemOID="IT.EC.ECENDY" Value="22"/>
    </ItemGroupData>
    <ItemGroupData ItemGroupOID="IG.EC" data:ItemGroupDataSeq="78">
      <ItemData ItemOID="IT.EC.STUDYID" Value="CDISCPILOT01"/>
      <ItemData ItemOID="IT.EC.DOMAIN" Value="EC"/>
      <ItemData ItemOID="IT.EC.USUBJID" Value="CDISC002"/>
      <ItemData ItemOID="IT.EC.SPDEVID" Value="DEV0002"/>
      <ItemData ItemOID="IT.EC.ECSEQ" Value="23"/>
      <ItemData ItemOID="IT.EC.ECTRT" Value="ZANOMALINE"/>
      <ItemData ItemOID="IT.EC.ECPRESP" Value="Y"/>
      <ItemData ItemOID="IT.EC.ECOCCUR" Value="Y"/>
      <ItemData ItemOID="IT.EC.ECDOSE" Value="5"/>
      <ItemData ItemOID="IT.EC.ECDOSU" Value="mL"/>
      <ItemData ItemOID="IT.EC.ECDOSFRM" Value="INJECTION"/>
      <ItemData ItemOID="IT.EC.ECDOSFRQ" Value="QD"/>
      <ItemData ItemOID="IT.EC.ECROUTE" Value="SUBCUTANEOUS"/>
      <ItemData ItemOID="IT.EC.ECLOT" Value="SDS580-359"/>
      <ItemData ItemOID="IT.EC.ECPSTRG" Value="10.8"/>
      <ItemData ItemOID="IT.EC.ECPSTRGU" Value="g/L"/>
      <ItemData ItemOID="IT.EC.EPOCH" Value="TREATMENT"/>
      <ItemData ItemOID="IT.EC.ECSTDTC" Value="2012-12-07"/>
      <ItemData ItemOID="IT.EC.ECENDTC" Value="2012-12-07"/>
      <ItemData ItemOID="IT.EC.ECSTDY" Value="23"/>
      <ItemData ItemOID="IT.EC.ECENDY" Value="23"/>
    </ItemGroupData>
    <ItemGroupData ItemGroupOID="IG.EC" data:ItemGroupDataSeq="79">
      <ItemData ItemOID="IT.EC.STUDYID" Value="CDISCPILOT01"/>
      <ItemData ItemOID="IT.EC.DOMAIN" Value="EC"/>
      <ItemData ItemOID="IT.EC.USUBJID" Value="CDISC002"/>
      <ItemData ItemOID="IT.EC.SPDEVID" Value="DEV0002"/>
      <ItemData ItemOID="IT.EC.ECSEQ" Value="24"/>
      <ItemData ItemOID="IT.EC.ECTRT" Value="ZANOMALINE"/>
      <ItemData ItemOID="IT.EC.ECPRESP" Value="Y"/>
      <ItemData ItemOID="IT.EC.ECOCCUR" Value="Y"/>
      <ItemData ItemOID="IT.EC.ECDOSE" Value="5"/>
      <ItemData ItemOID="IT.EC.ECDOSU" Value="mL"/>
      <ItemData ItemOID="IT.EC.ECDOSFRM" Value="INJECTION"/>
      <ItemData ItemOID="IT.EC.ECDOSFRQ" Value="QD"/>
      <ItemData ItemOID="IT.EC.ECROUTE" Value="SUBCUTANEOUS"/>
      <ItemData ItemOID="IT.EC.ECLOT" Value="SDS580-359"/>
      <ItemData ItemOID="IT.EC.ECPSTRG" Value="10.8"/>
      <ItemData ItemOID="IT.EC.ECPSTRGU" Value="g/L"/>
      <ItemData ItemOID="IT.EC.EPOCH" Value="TREATMENT"/>
      <ItemData ItemOID="IT.EC.ECSTDTC" Value="2012-12-08"/>
      <ItemData ItemOID="IT.EC.ECENDTC" Value="2012-12-08"/>
      <ItemData ItemOID="IT.EC.ECSTDY" Value="24"/>
      <ItemData ItemOID="IT.EC.ECENDY" Value="24"/>
    </ItemGroupData>
    <ItemGroupData ItemGroupOID="IG.EC" data:ItemGroupDataSeq="80">
      <ItemData ItemOID="IT.EC.STUDYID" Value="CDISCPILOT01"/>
      <ItemData ItemOID="IT.EC.DOMAIN" Value="EC"/>
      <ItemData ItemOID="IT.EC.USUBJID" Value="CDISC002"/>
      <ItemData ItemOID="IT.EC.SPDEVID" Value="DEV0002"/>
      <ItemData ItemOID="IT.EC.ECSEQ" Value="25"/>
      <ItemData ItemOID="IT.EC.ECTRT" Value="ZANOMALINE"/>
      <ItemData ItemOID="IT.EC.ECPRESP" Value="Y"/>
      <ItemData ItemOID="IT.EC.ECOCCUR" Value="Y"/>
      <ItemData ItemOID="IT.EC.ECDOSE" Value="5"/>
      <ItemData ItemOID="IT.EC.ECDOSU" Value="mL"/>
      <ItemData ItemOID="IT.EC.ECDOSFRM" Value="INJECTION"/>
      <ItemData ItemOID="IT.EC.ECDOSFRQ" Value="QD"/>
      <ItemData ItemOID="IT.EC.ECROUTE" Value="SUBCUTANEOUS"/>
      <ItemData ItemOID="IT.EC.ECLOT" Value="SDS580-359"/>
      <ItemData ItemOID="IT.EC.ECPSTRG" Value="10.8"/>
      <ItemData ItemOID="IT.EC.ECPSTRGU" Value="g/L"/>
      <ItemData ItemOID="IT.EC.EPOCH" Value="TREATMENT"/>
      <ItemData ItemOID="IT.EC.ECSTDTC" Value="2012-12-09"/>
      <ItemData ItemOID="IT.EC.ECENDTC" Value="2012-12-09"/>
      <ItemData ItemOID="IT.EC.ECSTDY" Value="25"/>
      <ItemData ItemOID="IT.EC.ECENDY" Value="25"/>
    </ItemGroupData>
    <ItemGroupData ItemGroupOID="IG.EC" data:ItemGroupDataSeq="81">
      <ItemData ItemOID="IT.EC.STUDYID" Value="CDISCPILOT01"/>
      <ItemData ItemOID="IT.EC.DOMAIN" Value="EC"/>
      <ItemData ItemOID="IT.EC.USUBJID" Value="CDISC002"/>
      <ItemData ItemOID="IT.EC.SPDEVID" Value="DEV0002"/>
      <ItemData ItemOID="IT.EC.ECSEQ" Value="26"/>
      <ItemData ItemOID="IT.EC.ECTRT" Value="ZANOMALINE"/>
      <ItemData ItemOID="IT.EC.ECPRESP" Value="Y"/>
      <ItemData ItemOID="IT.EC.ECOCCUR" Value="Y"/>
      <ItemData ItemOID="IT.EC.ECDOSE" Value="5"/>
      <ItemData ItemOID="IT.EC.ECDOSU" Value="mL"/>
      <ItemData ItemOID="IT.EC.ECDOSFRM" Value="INJECTION"/>
      <ItemData ItemOID="IT.EC.ECDOSFRQ" Value="QD"/>
      <ItemData ItemOID="IT.EC.ECROUTE" Value="SUBCUTANEOUS"/>
      <ItemData ItemOID="IT.EC.ECLOT" Value="SDS580-359"/>
      <ItemData ItemOID="IT.EC.ECPSTRG" Value="10.8"/>
      <ItemData ItemOID="IT.EC.ECPSTRGU" Value="g/L"/>
      <ItemData ItemOID="IT.EC.EPOCH" Value="TREATMENT"/>
      <ItemData ItemOID="IT.EC.ECSTDTC" Value="2012-12-10"/>
      <ItemData ItemOID="IT.EC.ECENDTC" Value="2012-12-10"/>
      <ItemData ItemOID="IT.EC.ECSTDY" Value="26"/>
      <ItemData ItemOID="IT.EC.ECENDY" Value="26"/>
    </ItemGroupData>
    <ItemGroupData ItemGroupOID="IG.EC" data:ItemGroupDataSeq="82">
      <ItemData ItemOID="IT.EC.STUDYID" Value="CDISCPILOT01"/>
      <ItemData ItemOID="IT.EC.DOMAIN" Value="EC"/>
      <ItemData ItemOID="IT.EC.USUBJID" Value="CDISC002"/>
      <ItemData ItemOID="IT.EC.SPDEVID" Value="DEV0002"/>
      <ItemData ItemOID="IT.EC.ECSEQ" Value="27"/>
      <ItemData ItemOID="IT.EC.ECTRT" Value="ZANOMALINE"/>
      <ItemData ItemOID="IT.EC.ECPRESP" Value="Y"/>
      <ItemData ItemOID="IT.EC.ECOCCUR" Value="Y"/>
      <ItemData ItemOID="IT.EC.ECDOSE" Value="5"/>
      <ItemData ItemOID="IT.EC.ECDOSU" Value="mL"/>
      <ItemData ItemOID="IT.EC.ECDOSFRM" Value="INJECTION"/>
      <ItemData ItemOID="IT.EC.ECDOSFRQ" Value="QD"/>
      <ItemData ItemOID="IT.EC.ECROUTE" Value="SUBCUTANEOUS"/>
      <ItemData ItemOID="IT.EC.ECLOT" Value="SDS580-359"/>
      <ItemData ItemOID="IT.EC.ECPSTRG" Value="10.8"/>
      <ItemData ItemOID="IT.EC.ECPSTRGU" Value="g/L"/>
      <ItemData ItemOID="IT.EC.EPOCH" Value="TREATMENT"/>
      <ItemData ItemOID="IT.EC.ECSTDTC" Value="2012-12-11"/>
      <ItemData ItemOID="IT.EC.ECENDTC" Value="2012-12-11"/>
      <ItemData ItemOID="IT.EC.ECSTDY" Value="27"/>
      <ItemData ItemOID="IT.EC.ECENDY" Value="27"/>
    </ItemGroupData>
    <ItemGroupData ItemGroupOID="IG.EC" data:ItemGroupDataSeq="83">
      <ItemData ItemOID="IT.EC.STUDYID" Value="CDISCPILOT01"/>
      <ItemData ItemOID="IT.EC.DOMAIN" Value="EC"/>
      <ItemData ItemOID="IT.EC.USUBJID" Value="CDISC002"/>
      <ItemData ItemOID="IT.EC.SPDEVID" Value="DEV0002"/>
      <ItemData ItemOID="IT.EC.ECSEQ" Value="28"/>
      <ItemData ItemOID="IT.EC.ECTRT" Value="ZANOMALINE"/>
      <ItemData ItemOID="IT.EC.ECPRESP" Value="Y"/>
      <ItemData ItemOID="IT.EC.ECOCCUR" Value="Y"/>
      <ItemData ItemOID="IT.EC.ECDOSE" Value="5"/>
      <ItemData ItemOID="IT.EC.ECDOSU" Value="mL"/>
      <ItemData ItemOID="IT.EC.ECDOSFRM" Value="INJECTION"/>
      <ItemData ItemOID="IT.EC.ECDOSFRQ" Value="QD"/>
      <ItemData ItemOID="IT.EC.ECROUTE" Value="SUBCUTANEOUS"/>
      <ItemData ItemOID="IT.EC.ECLOT" Value="SDS580-359"/>
      <ItemData ItemOID="IT.EC.ECPSTRG" Value="10.8"/>
      <ItemData ItemOID="IT.EC.ECPSTRGU" Value="g/L"/>
      <ItemData ItemOID="IT.EC.EPOCH" Value="TREATMENT"/>
      <ItemData ItemOID="IT.EC.ECSTDTC" Value="2012-12-12"/>
      <ItemData ItemOID="IT.EC.ECENDTC" Value="2012-12-12"/>
      <ItemData ItemOID="IT.EC.ECSTDY" Value="28"/>
      <ItemData ItemOID="IT.EC.ECENDY" Value="28"/>
    </ItemGroupData>
    <ItemGroupData ItemGroupOID="IG.EC" data:ItemGroupDataSeq="84">
      <ItemData ItemOID="IT.EC.STUDYID" Value="CDISCPILOT01"/>
      <ItemData ItemOID="IT.EC.DOMAIN" Value="EC"/>
      <ItemData ItemOID="IT.EC.USUBJID" Value="CDISC002"/>
      <ItemData ItemOID="IT.EC.SPDEVID" Value="DEV0002"/>
      <ItemData ItemOID="IT.EC.ECSEQ" Value="29"/>
      <ItemData ItemOID="IT.EC.ECTRT" Value="ZANOMALINE"/>
      <ItemData ItemOID="IT.EC.ECPRESP" Value="Y"/>
      <ItemData ItemOID="IT.EC.ECOCCUR" Value="Y"/>
      <ItemData ItemOID="IT.EC.ECDOSE" Value="5"/>
      <ItemData ItemOID="IT.EC.ECDOSU" Value="mL"/>
      <ItemData ItemOID="IT.EC.ECDOSFRM" Value="INJECTION"/>
      <ItemData ItemOID="IT.EC.ECDOSFRQ" Value="QD"/>
      <ItemData ItemOID="IT.EC.ECROUTE" Value="SUBCUTANEOUS"/>
      <ItemData ItemOID="IT.EC.ECLOT" Value="SDS580-359"/>
      <ItemData ItemOID="IT.EC.ECPSTRG" Value="10.8"/>
      <ItemData ItemOID="IT.EC.ECPSTRGU" Value="g/L"/>
      <ItemData ItemOID="IT.EC.EPOCH" Value="TREATMENT"/>
      <ItemData ItemOID="IT.EC.ECSTDTC" Value="2012-12-13"/>
      <ItemData ItemOID="IT.EC.ECENDTC" Value="2012-12-13"/>
      <ItemData ItemOID="IT.EC.ECSTDY" Value="29"/>
      <ItemData ItemOID="IT.EC.ECENDY" Value="29"/>
    </ItemGroupData>
    <ItemGroupData ItemGroupOID="IG.EC" data:ItemGroupDataSeq="85">
      <ItemData ItemOID="IT.EC.STUDYID" Value="CDISCPILOT01"/>
      <ItemData ItemOID="IT.EC.DOMAIN" Value="EC"/>
      <ItemData ItemOID="IT.EC.USUBJID" Value="CDISC002"/>
      <ItemData ItemOID="IT.EC.SPDEVID" Value="DEV0002"/>
      <ItemData ItemOID="IT.EC.ECSEQ" Value="30"/>
      <ItemData ItemOID="IT.EC.ECTRT" Value="ZANOMALINE"/>
      <ItemData ItemOID="IT.EC.ECPRESP" Value="Y"/>
      <ItemData ItemOID="IT.EC.ECOCCUR" Value="Y"/>
      <ItemData ItemOID="IT.EC.ECDOSE" Value="5"/>
      <ItemData ItemOID="IT.EC.ECDOSU" Value="mL"/>
      <ItemData ItemOID="IT.EC.ECDOSFRM" Value="INJECTION"/>
      <ItemData ItemOID="IT.EC.ECDOSFRQ" Value="QD"/>
      <ItemData ItemOID="IT.EC.ECROUTE" Value="SUBCUTANEOUS"/>
      <ItemData ItemOID="IT.EC.ECLOT" Value="SDS580-359"/>
      <ItemData ItemOID="IT.EC.ECPSTRG" Value="10.8"/>
      <ItemData ItemOID="IT.EC.ECPSTRGU" Value="g/L"/>
      <ItemData ItemOID="IT.EC.EPOCH" Value="TREATMENT"/>
      <ItemData ItemOID="IT.EC.ECSTDTC" Value="2012-12-14"/>
      <ItemData ItemOID="IT.EC.ECENDTC" Value="2012-12-14"/>
      <ItemData ItemOID="IT.EC.ECSTDY" Value="30"/>
      <ItemData ItemOID="IT.EC.ECENDY" Value="30"/>
    </ItemGroupData>
    <ItemGroupData ItemGroupOID="IG.EC" data:ItemGroupDataSeq="86">
      <ItemData ItemOID="IT.EC.STUDYID" Value="CDISCPILOT01"/>
      <ItemData ItemOID="IT.EC.DOMAIN" Value="EC"/>
      <ItemData ItemOID="IT.EC.USUBJID" Value="CDISC002"/>
      <ItemData ItemOID="IT.EC.SPDEVID" Value="DEV0002"/>
      <ItemData ItemOID="IT.EC.ECSEQ" Value="31"/>
      <ItemData ItemOID="IT.EC.ECTRT" Value="ZANOMALINE"/>
      <ItemData ItemOID="IT.EC.ECPRESP" Value="Y"/>
      <ItemData ItemOID="IT.EC.ECOCCUR" Value="Y"/>
      <ItemData ItemOID="IT.EC.ECDOSE" Value="5"/>
      <ItemData ItemOID="IT.EC.ECDOSU" Value="mL"/>
      <ItemData ItemOID="IT.EC.ECDOSFRM" Value="INJECTION"/>
      <ItemData ItemOID="IT.EC.ECDOSFRQ" Value="QD"/>
      <ItemData ItemOID="IT.EC.ECROUTE" Value="SUBCUTANEOUS"/>
      <ItemData ItemOID="IT.EC.ECLOT" Value="SDS580-359"/>
      <ItemData ItemOID="IT.EC.ECPSTRG" Value="10.8"/>
      <ItemData ItemOID="IT.EC.ECPSTRGU" Value="g/L"/>
      <ItemData ItemOID="IT.EC.EPOCH" Value="TREATMENT"/>
      <ItemData ItemOID="IT.EC.ECSTDTC" Value="2012-12-15"/>
      <ItemData ItemOID="IT.EC.ECENDTC" Value="2012-12-15"/>
      <ItemData ItemOID="IT.EC.ECSTDY" Value="31"/>
      <ItemData ItemOID="IT.EC.ECENDY" Value="31"/>
    </ItemGroupData>
    <ItemGroupData ItemGroupOID="IG.EC" data:ItemGroupDataSeq="87">
      <ItemData ItemOID="IT.EC.STUDYID" Value="CDISCPILOT01"/>
      <ItemData ItemOID="IT.EC.DOMAIN" Value="EC"/>
      <ItemData ItemOID="IT.EC.USUBJID" Value="CDISC002"/>
      <ItemData ItemOID="IT.EC.SPDEVID" Value="DEV0002"/>
      <ItemData ItemOID="IT.EC.ECSEQ" Value="32"/>
      <ItemData ItemOID="IT.EC.ECTRT" Value="ZANOMALINE"/>
      <ItemData ItemOID="IT.EC.ECPRESP" Value="Y"/>
      <ItemData ItemOID="IT.EC.ECOCCUR" Value="Y"/>
      <ItemData ItemOID="IT.EC.ECDOSE" Value="5"/>
      <ItemData ItemOID="IT.EC.ECDOSU" Value="mL"/>
      <ItemData ItemOID="IT.EC.ECDOSFRM" Value="INJECTION"/>
      <ItemData ItemOID="IT.EC.ECDOSFRQ" Value="QD"/>
      <ItemData ItemOID="IT.EC.ECROUTE" Value="SUBCUTANEOUS"/>
      <ItemData ItemOID="IT.EC.ECLOT" Value="SDS580-359"/>
      <ItemData ItemOID="IT.EC.ECPSTRG" Value="10.8"/>
      <ItemData ItemOID="IT.EC.ECPSTRGU" Value="g/L"/>
      <ItemData ItemOID="IT.EC.EPOCH" Value="TREATMENT"/>
      <ItemData ItemOID="IT.EC.ECSTDTC" Value="2012-12-16"/>
      <ItemData ItemOID="IT.EC.ECENDTC" Value="2012-12-16"/>
      <ItemData ItemOID="IT.EC.ECSTDY" Value="32"/>
      <ItemData ItemOID="IT.EC.ECENDY" Value="32"/>
    </ItemGroupData>
    <ItemGroupData ItemGroupOID="IG.EC" data:ItemGroupDataSeq="88">
      <ItemData ItemOID="IT.EC.STUDYID" Value="CDISCPILOT01"/>
      <ItemData ItemOID="IT.EC.DOMAIN" Value="EC"/>
      <ItemData ItemOID="IT.EC.USUBJID" Value="CDISC002"/>
      <ItemData ItemOID="IT.EC.SPDEVID" Value="DEV0002"/>
      <ItemData ItemOID="IT.EC.ECSEQ" Value="33"/>
      <ItemData ItemOID="IT.EC.ECTRT" Value="ZANOMALINE"/>
      <ItemData ItemOID="IT.EC.ECPRESP" Value="Y"/>
      <ItemData ItemOID="IT.EC.ECOCCUR" Value="Y"/>
      <ItemData ItemOID="IT.EC.ECDOSE" Value="5"/>
      <ItemData ItemOID="IT.EC.ECDOSU" Value="mL"/>
      <ItemData ItemOID="IT.EC.ECDOSFRM" Value="INJECTION"/>
      <ItemData ItemOID="IT.EC.ECDOSFRQ" Value="QD"/>
      <ItemData ItemOID="IT.EC.ECROUTE" Value="SUBCUTANEOUS"/>
      <ItemData ItemOID="IT.EC.ECLOT" Value="SDS580-359"/>
      <ItemData ItemOID="IT.EC.ECPSTRG" Value="10.8"/>
      <ItemData ItemOID="IT.EC.ECPSTRGU" Value="g/L"/>
      <ItemData ItemOID="IT.EC.EPOCH" Value="TREATMENT"/>
      <ItemData ItemOID="IT.EC.ECSTDTC" Value="2012-12-17"/>
      <ItemData ItemOID="IT.EC.ECENDTC" Value="2012-12-17"/>
      <ItemData ItemOID="IT.EC.ECSTDY" Value="33"/>
      <ItemData ItemOID="IT.EC.ECENDY" Value="33"/>
    </ItemGroupData>
    <ItemGroupData ItemGroupOID="IG.EC" data:ItemGroupDataSeq="89">
      <ItemData ItemOID="IT.EC.STUDYID" Value="CDISCPILOT01"/>
      <ItemData ItemOID="IT.EC.DOMAIN" Value="EC"/>
      <ItemData ItemOID="IT.EC.USUBJID" Value="CDISC002"/>
      <ItemData ItemOID="IT.EC.SPDEVID" Value="DEV0002"/>
      <ItemData ItemOID="IT.EC.ECSEQ" Value="34"/>
      <ItemData ItemOID="IT.EC.ECTRT" Value="ZANOMALINE"/>
      <ItemData ItemOID="IT.EC.ECPRESP" Value="Y"/>
      <ItemData ItemOID="IT.EC.ECOCCUR" Value="Y"/>
      <ItemData ItemOID="IT.EC.ECDOSE" Value="5"/>
      <ItemData ItemOID="IT.EC.ECDOSU" Value="mL"/>
      <ItemData ItemOID="IT.EC.ECDOSFRM" Value="INJECTION"/>
      <ItemData ItemOID="IT.EC.ECDOSFRQ" Value="QD"/>
      <ItemData ItemOID="IT.EC.ECROUTE" Value="SUBCUTANEOUS"/>
      <ItemData ItemOID="IT.EC.ECLOT" Value="SDS580-359"/>
      <ItemData ItemOID="IT.EC.ECPSTRG" Value="10.8"/>
      <ItemData ItemOID="IT.EC.ECPSTRGU" Value="g/L"/>
      <ItemData ItemOID="IT.EC.EPOCH" Value="TREATMENT"/>
      <ItemData ItemOID="IT.EC.ECSTDTC" Value="2012-12-18"/>
      <ItemData ItemOID="IT.EC.ECENDTC" Value="2012-12-18"/>
      <ItemData ItemOID="IT.EC.ECSTDY" Value="34"/>
      <ItemData ItemOID="IT.EC.ECENDY" Value="34"/>
    </ItemGroupData>
    <ItemGroupData ItemGroupOID="IG.EC" data:ItemGroupDataSeq="90">
      <ItemData ItemOID="IT.EC.STUDYID" Value="CDISCPILOT01"/>
      <ItemData ItemOID="IT.EC.DOMAIN" Value="EC"/>
      <ItemData ItemOID="IT.EC.USUBJID" Value="CDISC002"/>
      <ItemData ItemOID="IT.EC.SPDEVID" Value="DEV0002"/>
      <ItemData ItemOID="IT.EC.ECSEQ" Value="35"/>
      <ItemData ItemOID="IT.EC.ECTRT" Value="ZANOMALINE"/>
      <ItemData ItemOID="IT.EC.ECPRESP" Value="Y"/>
      <ItemData ItemOID="IT.EC.ECOCCUR" Value="Y"/>
      <ItemData ItemOID="IT.EC.ECDOSE" Value="5"/>
      <ItemData ItemOID="IT.EC.ECDOSU" Value="mL"/>
      <ItemData ItemOID="IT.EC.ECDOSFRM" Value="INJECTION"/>
      <ItemData ItemOID="IT.EC.ECDOSFRQ" Value="QD"/>
      <ItemData ItemOID="IT.EC.ECROUTE" Value="SUBCUTANEOUS"/>
      <ItemData ItemOID="IT.EC.ECLOT" Value="SDS580-359"/>
      <ItemData ItemOID="IT.EC.ECPSTRG" Value="10.8"/>
      <ItemData ItemOID="IT.EC.ECPSTRGU" Value="g/L"/>
      <ItemData ItemOID="IT.EC.EPOCH" Value="TREATMENT"/>
      <ItemData ItemOID="IT.EC.ECSTDTC" Value="2012-12-19"/>
      <ItemData ItemOID="IT.EC.ECENDTC" Value="2012-12-19"/>
      <ItemData ItemOID="IT.EC.ECSTDY" Value="35"/>
      <ItemData ItemOID="IT.EC.ECENDY" Value="35"/>
    </ItemGroupData>
    <ItemGroupData ItemGroupOID="IG.EC" data:ItemGroupDataSeq="91">
      <ItemData ItemOID="IT.EC.STUDYID" Value="CDISCPILOT01"/>
      <ItemData ItemOID="IT.EC.DOMAIN" Value="EC"/>
      <ItemData ItemOID="IT.EC.USUBJID" Value="CDISC002"/>
      <ItemData ItemOID="IT.EC.SPDEVID" Value="DEV0002"/>
      <ItemData ItemOID="IT.EC.ECSEQ" Value="36"/>
      <ItemData ItemOID="IT.EC.ECTRT" Value="ZANOMALINE"/>
      <ItemData ItemOID="IT.EC.ECPRESP" Value="Y"/>
      <ItemData ItemOID="IT.EC.ECOCCUR" Value="Y"/>
      <ItemData ItemOID="IT.EC.ECDOSE" Value="5"/>
      <ItemData ItemOID="IT.EC.ECDOSU" Value="mL"/>
      <ItemData ItemOID="IT.EC.ECDOSFRM" Value="INJECTION"/>
      <ItemData ItemOID="IT.EC.ECDOSFRQ" Value="QD"/>
      <ItemData ItemOID="IT.EC.ECROUTE" Value="SUBCUTANEOUS"/>
      <ItemData ItemOID="IT.EC.ECLOT" Value="SDS580-359"/>
      <ItemData ItemOID="IT.EC.ECPSTRG" Value="10.8"/>
      <ItemData ItemOID="IT.EC.ECPSTRGU" Value="g/L"/>
      <ItemData ItemOID="IT.EC.EPOCH" Value="TREATMENT"/>
      <ItemData ItemOID="IT.EC.ECSTDTC" Value="2012-12-20"/>
      <ItemData ItemOID="IT.EC.ECENDTC" Value="2012-12-20"/>
      <ItemData ItemOID="IT.EC.ECSTDY" Value="36"/>
      <ItemData ItemOID="IT.EC.ECENDY" Value="36"/>
    </ItemGroupData>
    <ItemGroupData ItemGroupOID="IG.EC" data:ItemGroupDataSeq="92">
      <ItemData ItemOID="IT.EC.STUDYID" Value="CDISCPILOT01"/>
      <ItemData ItemOID="IT.EC.DOMAIN" Value="EC"/>
      <ItemData ItemOID="IT.EC.USUBJID" Value="CDISC002"/>
      <ItemData ItemOID="IT.EC.SPDEVID" Value="DEV0002"/>
      <ItemData ItemOID="IT.EC.ECSEQ" Value="37"/>
      <ItemData ItemOID="IT.EC.ECTRT" Value="ZANOMALINE"/>
      <ItemData ItemOID="IT.EC.ECPRESP" Value="Y"/>
      <ItemData ItemOID="IT.EC.ECOCCUR" Value="Y"/>
      <ItemData ItemOID="IT.EC.ECDOSE" Value="5"/>
      <ItemData ItemOID="IT.EC.ECDOSU" Value="mL"/>
      <ItemData ItemOID="IT.EC.ECDOSFRM" Value="INJECTION"/>
      <ItemData ItemOID="IT.EC.ECDOSFRQ" Value="QD"/>
      <ItemData ItemOID="IT.EC.ECROUTE" Value="SUBCUTANEOUS"/>
      <ItemData ItemOID="IT.EC.ECLOT" Value="SDS580-359"/>
      <ItemData ItemOID="IT.EC.ECPSTRG" Value="10.8"/>
      <ItemData ItemOID="IT.EC.ECPSTRGU" Value="g/L"/>
      <ItemData ItemOID="IT.EC.EPOCH" Value="TREATMENT"/>
      <ItemData ItemOID="IT.EC.ECSTDTC" Value="2012-12-21"/>
      <ItemData ItemOID="IT.EC.ECENDTC" Value="2012-12-21"/>
      <ItemData ItemOID="IT.EC.ECSTDY" Value="37"/>
      <ItemData ItemOID="IT.EC.ECENDY" Value="37"/>
    </ItemGroupData>
    <ItemGroupData ItemGroupOID="IG.EC" data:ItemGroupDataSeq="93">
      <ItemData ItemOID="IT.EC.STUDYID" Value="CDISCPILOT01"/>
      <ItemData ItemOID="IT.EC.DOMAIN" Value="EC"/>
      <ItemData ItemOID="IT.EC.USUBJID" Value="CDISC002"/>
      <ItemData ItemOID="IT.EC.SPDEVID" Value="DEV0002"/>
      <ItemData ItemOID="IT.EC.ECSEQ" Value="38"/>
      <ItemData ItemOID="IT.EC.ECTRT" Value="ZANOMALINE"/>
      <ItemData ItemOID="IT.EC.ECPRESP" Value="Y"/>
      <ItemData ItemOID="IT.EC.ECOCCUR" Value="Y"/>
      <ItemData ItemOID="IT.EC.ECDOSE" Value="5"/>
      <ItemData ItemOID="IT.EC.ECDOSU" Value="mL"/>
      <ItemData ItemOID="IT.EC.ECDOSFRM" Value="INJECTION"/>
      <ItemData ItemOID="IT.EC.ECDOSFRQ" Value="QD"/>
      <ItemData ItemOID="IT.EC.ECROUTE" Value="SUBCUTANEOUS"/>
      <ItemData ItemOID="IT.EC.ECLOT" Value="SDS580-359"/>
      <ItemData ItemOID="IT.EC.ECPSTRG" Value="10.8"/>
      <ItemData ItemOID="IT.EC.ECPSTRGU" Value="g/L"/>
      <ItemData ItemOID="IT.EC.EPOCH" Value="TREATMENT"/>
      <ItemData ItemOID="IT.EC.ECSTDTC" Value="2012-12-22"/>
      <ItemData ItemOID="IT.EC.ECENDTC" Value="2012-12-22"/>
      <ItemData ItemOID="IT.EC.ECSTDY" Value="38"/>
      <ItemData ItemOID="IT.EC.ECENDY" Value="38"/>
    </ItemGroupData>
    <ItemGroupData ItemGroupOID="IG.EC" data:ItemGroupDataSeq="94">
      <ItemData ItemOID="IT.EC.STUDYID" Value="CDISCPILOT01"/>
      <ItemData ItemOID="IT.EC.DOMAIN" Value="EC"/>
      <ItemData ItemOID="IT.EC.USUBJID" Value="CDISC002"/>
      <ItemData ItemOID="IT.EC.SPDEVID" Value="DEV0002"/>
      <ItemData ItemOID="IT.EC.ECSEQ" Value="39"/>
      <ItemData ItemOID="IT.EC.ECTRT" Value="ZANOMALINE"/>
      <ItemData ItemOID="IT.EC.ECPRESP" Value="Y"/>
      <ItemData ItemOID="IT.EC.ECOCCUR" Value="Y"/>
      <ItemData ItemOID="IT.EC.ECDOSE" Value="5"/>
      <ItemData ItemOID="IT.EC.ECDOSU" Value="mL"/>
      <ItemData ItemOID="IT.EC.ECDOSFRM" Value="INJECTION"/>
      <ItemData ItemOID="IT.EC.ECDOSFRQ" Value="QD"/>
      <ItemData ItemOID="IT.EC.ECROUTE" Value="SUBCUTANEOUS"/>
      <ItemData ItemOID="IT.EC.ECLOT" Value="SDS580-359"/>
      <ItemData ItemOID="IT.EC.ECPSTRG" Value="10.8"/>
      <ItemData ItemOID="IT.EC.ECPSTRGU" Value="g/L"/>
      <ItemData ItemOID="IT.EC.EPOCH" Value="TREATMENT"/>
      <ItemData ItemOID="IT.EC.ECSTDTC" Value="2012-12-23"/>
      <ItemData ItemOID="IT.EC.ECENDTC" Value="2012-12-23"/>
      <ItemData ItemOID="IT.EC.ECSTDY" Value="39"/>
      <ItemData ItemOID="IT.EC.ECENDY" Value="39"/>
    </ItemGroupData>
    <ItemGroupData ItemGroupOID="IG.EC" data:ItemGroupDataSeq="95">
      <ItemData ItemOID="IT.EC.STUDYID" Value="CDISCPILOT01"/>
      <ItemData ItemOID="IT.EC.DOMAIN" Value="EC"/>
      <ItemData ItemOID="IT.EC.USUBJID" Value="CDISC002"/>
      <ItemData ItemOID="IT.EC.SPDEVID" Value="DEV0002"/>
      <ItemData ItemOID="IT.EC.ECSEQ" Value="40"/>
      <ItemData ItemOID="IT.EC.ECTRT" Value="ZANOMALINE"/>
      <ItemData ItemOID="IT.EC.ECPRESP" Value="Y"/>
      <ItemData ItemOID="IT.EC.ECOCCUR" Value="Y"/>
      <ItemData ItemOID="IT.EC.ECDOSE" Value="5"/>
      <ItemData ItemOID="IT.EC.ECDOSU" Value="mL"/>
      <ItemData ItemOID="IT.EC.ECDOSFRM" Value="INJECTION"/>
      <ItemData ItemOID="IT.EC.ECDOSFRQ" Value="QD"/>
      <ItemData ItemOID="IT.EC.ECROUTE" Value="SUBCUTANEOUS"/>
      <ItemData ItemOID="IT.EC.ECLOT" Value="SDS580-359"/>
      <ItemData ItemOID="IT.EC.ECPSTRG" Value="10.8"/>
      <ItemData ItemOID="IT.EC.ECPSTRGU" Value="g/L"/>
      <ItemData ItemOID="IT.EC.EPOCH" Value="TREATMENT"/>
      <ItemData ItemOID="IT.EC.ECSTDTC" Value="2012-12-24"/>
      <ItemData ItemOID="IT.EC.ECENDTC" Value="2012-12-24"/>
      <ItemData ItemOID="IT.EC.ECSTDY" Value="40"/>
      <ItemData ItemOID="IT.EC.ECENDY" Value="40"/>
    </ItemGroupData>
    <ItemGroupData ItemGroupOID="IG.EC" data:ItemGroupDataSeq="96">
      <ItemData ItemOID="IT.EC.STUDYID" Value="CDISCPILOT01"/>
      <ItemData ItemOID="IT.EC.DOMAIN" Value="EC"/>
      <ItemData ItemOID="IT.EC.USUBJID" Value="CDISC002"/>
      <ItemData ItemOID="IT.EC.SPDEVID" Value="DEV0002"/>
      <ItemData ItemOID="IT.EC.ECSEQ" Value="41"/>
      <ItemData ItemOID="IT.EC.ECTRT" Value="ZANOMALINE"/>
      <ItemData ItemOID="IT.EC.ECPRESP" Value="Y"/>
      <ItemData ItemOID="IT.EC.ECOCCUR" Value="Y"/>
      <ItemData ItemOID="IT.EC.ECDOSE" Value="5"/>
      <ItemData ItemOID="IT.EC.ECDOSU" Value="mL"/>
      <ItemData ItemOID="IT.EC.ECDOSFRM" Value="INJECTION"/>
      <ItemData ItemOID="IT.EC.ECDOSFRQ" Value="QD"/>
      <ItemData ItemOID="IT.EC.ECROUTE" Value="SUBCUTANEOUS"/>
      <ItemData ItemOID="IT.EC.ECLOT" Value="SDS580-359"/>
      <ItemData ItemOID="IT.EC.ECPSTRG" Value="10.8"/>
      <ItemData ItemOID="IT.EC.ECPSTRGU" Value="g/L"/>
      <ItemData ItemOID="IT.EC.EPOCH" Value="TREATMENT"/>
      <ItemData ItemOID="IT.EC.ECSTDTC" Value="2012-12-25"/>
      <ItemData ItemOID="IT.EC.ECENDTC" Value="2012-12-25"/>
      <ItemData ItemOID="IT.EC.ECSTDY" Value="41"/>
      <ItemData ItemOID="IT.EC.ECENDY" Value="41"/>
    </ItemGroupData>
    <ItemGroupData ItemGroupOID="IG.EC" data:ItemGroupDataSeq="97">
      <ItemData ItemOID="IT.EC.STUDYID" Value="CDISCPILOT01"/>
      <ItemData ItemOID="IT.EC.DOMAIN" Value="EC"/>
      <ItemData ItemOID="IT.EC.USUBJID" Value="CDISC002"/>
      <ItemData ItemOID="IT.EC.SPDEVID" Value="DEV0002"/>
      <ItemData ItemOID="IT.EC.ECSEQ" Value="42"/>
      <ItemData ItemOID="IT.EC.ECTRT" Value="ZANOMALINE"/>
      <ItemData ItemOID="IT.EC.ECPRESP" Value="Y"/>
      <ItemData ItemOID="IT.EC.ECOCCUR" Value="Y"/>
      <ItemData ItemOID="IT.EC.ECDOSE" Value="5"/>
      <ItemData ItemOID="IT.EC.ECDOSU" Value="mL"/>
      <ItemData ItemOID="IT.EC.ECDOSFRM" Value="INJECTION"/>
      <ItemData ItemOID="IT.EC.ECDOSFRQ" Value="QD"/>
      <ItemData ItemOID="IT.EC.ECROUTE" Value="SUBCUTANEOUS"/>
      <ItemData ItemOID="IT.EC.ECLOT" Value="SDS580-359"/>
      <ItemData ItemOID="IT.EC.ECPSTRG" Value="10.8"/>
      <ItemData ItemOID="IT.EC.ECPSTRGU" Value="g/L"/>
      <ItemData ItemOID="IT.EC.EPOCH" Value="TREATMENT"/>
      <ItemData ItemOID="IT.EC.ECSTDTC" Value="2012-12-26"/>
      <ItemData ItemOID="IT.EC.ECENDTC" Value="2012-12-26"/>
      <ItemData ItemOID="IT.EC.ECSTDY" Value="42"/>
      <ItemData ItemOID="IT.EC.ECENDY" Value="42"/>
    </ItemGroupData>
    <ItemGroupData ItemGroupOID="IG.EC" data:ItemGroupDataSeq="98">
      <ItemData ItemOID="IT.EC.STUDYID" Value="CDISCPILOT01"/>
      <ItemData ItemOID="IT.EC.DOMAIN" Value="EC"/>
      <ItemData ItemOID="IT.EC.USUBJID" Value="CDISC002"/>
      <ItemData ItemOID="IT.EC.SPDEVID" Value="DEV0002"/>
      <ItemData ItemOID="IT.EC.ECSEQ" Value="43"/>
      <ItemData ItemOID="IT.EC.ECTRT" Value="ZANOMALINE"/>
      <ItemData ItemOID="IT.EC.ECPRESP" Value="Y"/>
      <ItemData ItemOID="IT.EC.ECOCCUR" Value="Y"/>
      <ItemData ItemOID="IT.EC.ECDOSE" Value="5"/>
      <ItemData ItemOID="IT.EC.ECDOSU" Value="mL"/>
      <ItemData ItemOID="IT.EC.ECDOSFRM" Value="INJECTION"/>
      <ItemData ItemOID="IT.EC.ECDOSFRQ" Value="QD"/>
      <ItemData ItemOID="IT.EC.ECROUTE" Value="SUBCUTANEOUS"/>
      <ItemData ItemOID="IT.EC.ECLOT" Value="SDS580-359"/>
      <ItemData ItemOID="IT.EC.ECPSTRG" Value="10.8"/>
      <ItemData ItemOID="IT.EC.ECPSTRGU" Value="g/L"/>
      <ItemData ItemOID="IT.EC.EPOCH" Value="TREATMENT"/>
      <ItemData ItemOID="IT.EC.ECSTDTC" Value="2012-12-27"/>
      <ItemData ItemOID="IT.EC.ECENDTC" Value="2012-12-27"/>
      <ItemData ItemOID="IT.EC.ECSTDY" Value="43"/>
      <ItemData ItemOID="IT.EC.ECENDY" Value="43"/>
    </ItemGroupData>
    <ItemGroupData ItemGroupOID="IG.EC" data:ItemGroupDataSeq="99">
      <ItemData ItemOID="IT.EC.STUDYID" Value="CDISCPILOT01"/>
      <ItemData ItemOID="IT.EC.DOMAIN" Value="EC"/>
      <ItemData ItemOID="IT.EC.USUBJID" Value="CDISC002"/>
      <ItemData ItemOID="IT.EC.SPDEVID" Value="DEV0002"/>
      <ItemData ItemOID="IT.EC.ECSEQ" Value="44"/>
      <ItemData ItemOID="IT.EC.ECTRT" Value="ZANOMALINE"/>
      <ItemData ItemOID="IT.EC.ECPRESP" Value="Y"/>
      <ItemData ItemOID="IT.EC.ECOCCUR" Value="Y"/>
      <ItemData ItemOID="IT.EC.ECDOSE" Value="5"/>
      <ItemData ItemOID="IT.EC.ECDOSU" Value="mL"/>
      <ItemData ItemOID="IT.EC.ECDOSFRM" Value="INJECTION"/>
      <ItemData ItemOID="IT.EC.ECDOSFRQ" Value="QD"/>
      <ItemData ItemOID="IT.EC.ECROUTE" Value="SUBCUTANEOUS"/>
      <ItemData ItemOID="IT.EC.ECLOT" Value="SDS580-359"/>
      <ItemData ItemOID="IT.EC.ECPSTRG" Value="10.8"/>
      <ItemData ItemOID="IT.EC.ECPSTRGU" Value="g/L"/>
      <ItemData ItemOID="IT.EC.EPOCH" Value="TREATMENT"/>
      <ItemData ItemOID="IT.EC.ECSTDTC" Value="2012-12-28"/>
      <ItemData ItemOID="IT.EC.ECENDTC" Value="2012-12-28"/>
      <ItemData ItemOID="IT.EC.ECSTDY" Value="44"/>
      <ItemData ItemOID="IT.EC.ECENDY" Value="44"/>
    </ItemGroupData>
    <ItemGroupData ItemGroupOID="IG.EC" data:ItemGroupDataSeq="100">
      <ItemData ItemOID="IT.EC.STUDYID" Value="CDISCPILOT01"/>
      <ItemData ItemOID="IT.EC.DOMAIN" Value="EC"/>
      <ItemData ItemOID="IT.EC.USUBJID" Value="CDISC002"/>
      <ItemData ItemOID="IT.EC.SPDEVID" Value="DEV0002"/>
      <ItemData ItemOID="IT.EC.ECSEQ" Value="45"/>
      <ItemData ItemOID="IT.EC.ECTRT" Value="ZANOMALINE"/>
      <ItemData ItemOID="IT.EC.ECPRESP" Value="Y"/>
      <ItemData ItemOID="IT.EC.ECOCCUR" Value="Y"/>
      <ItemData ItemOID="IT.EC.ECDOSE" Value="5"/>
      <ItemData ItemOID="IT.EC.ECDOSU" Value="mL"/>
      <ItemData ItemOID="IT.EC.ECDOSFRM" Value="INJECTION"/>
      <ItemData ItemOID="IT.EC.ECDOSFRQ" Value="QD"/>
      <ItemData ItemOID="IT.EC.ECROUTE" Value="SUBCUTANEOUS"/>
      <ItemData ItemOID="IT.EC.ECLOT" Value="SDS580-359"/>
      <ItemData ItemOID="IT.EC.ECPSTRG" Value="10.8"/>
      <ItemData ItemOID="IT.EC.ECPSTRGU" Value="g/L"/>
      <ItemData ItemOID="IT.EC.EPOCH" Value="TREATMENT"/>
      <ItemData ItemOID="IT.EC.ECSTDTC" Value="2012-12-29"/>
      <ItemData ItemOID="IT.EC.ECENDTC" Value="2012-12-29"/>
      <ItemData ItemOID="IT.EC.ECSTDY" Value="45"/>
      <ItemData ItemOID="IT.EC.ECENDY" Value="45"/>
    </ItemGroupData>
    <ItemGroupData ItemGroupOID="IG.EC" data:ItemGroupDataSeq="101">
      <ItemData ItemOID="IT.EC.STUDYID" Value="CDISCPILOT01"/>
      <ItemData ItemOID="IT.EC.DOMAIN" Value="EC"/>
      <ItemData ItemOID="IT.EC.USUBJID" Value="CDISC002"/>
      <ItemData ItemOID="IT.EC.SPDEVID" Value="DEV0002"/>
      <ItemData ItemOID="IT.EC.ECSEQ" Value="46"/>
      <ItemData ItemOID="IT.EC.ECTRT" Value="ZANOMALINE"/>
      <ItemData ItemOID="IT.EC.ECPRESP" Value="Y"/>
      <ItemData ItemOID="IT.EC.ECOCCUR" Value="Y"/>
      <ItemData ItemOID="IT.EC.ECDOSE" Value="5"/>
      <ItemData ItemOID="IT.EC.ECDOSU" Value="mL"/>
      <ItemData ItemOID="IT.EC.ECDOSFRM" Value="INJECTION"/>
      <ItemData ItemOID="IT.EC.ECDOSFRQ" Value="QD"/>
      <ItemData ItemOID="IT.EC.ECROUTE" Value="SUBCUTANEOUS"/>
      <ItemData ItemOID="IT.EC.ECLOT" Value="SDS580-359"/>
      <ItemData ItemOID="IT.EC.ECPSTRG" Value="10.8"/>
      <ItemData ItemOID="IT.EC.ECPSTRGU" Value="g/L"/>
      <ItemData ItemOID="IT.EC.EPOCH" Value="TREATMENT"/>
      <ItemData ItemOID="IT.EC.ECSTDTC" Value="2012-12-30"/>
      <ItemData ItemOID="IT.EC.ECENDTC" Value="2012-12-30"/>
      <ItemData ItemOID="IT.EC.ECSTDY" Value="46"/>
      <ItemData ItemOID="IT.EC.ECENDY" Value="46"/>
    </ItemGroupData>
    <ItemGroupData ItemGroupOID="IG.EC" data:ItemGroupDataSeq="102">
      <ItemData ItemOID="IT.EC.STUDYID" Value="CDISCPILOT01"/>
      <ItemData ItemOID="IT.EC.DOMAIN" Value="EC"/>
      <ItemData ItemOID="IT.EC.USUBJID" Value="CDISC002"/>
      <ItemData ItemOID="IT.EC.SPDEVID" Value="DEV0002"/>
      <ItemData ItemOID="IT.EC.ECSEQ" Value="47"/>
      <ItemData ItemOID="IT.EC.ECTRT" Value="ZANOMALINE"/>
      <ItemData ItemOID="IT.EC.ECPRESP" Value="Y"/>
      <ItemData ItemOID="IT.EC.ECOCCUR" Value="Y"/>
      <ItemData ItemOID="IT.EC.ECDOSE" Value="5"/>
      <ItemData ItemOID="IT.EC.ECDOSU" Value="mL"/>
      <ItemData ItemOID="IT.EC.ECDOSFRM" Value="INJECTION"/>
      <ItemData ItemOID="IT.EC.ECDOSFRQ" Value="QD"/>
      <ItemData ItemOID="IT.EC.ECROUTE" Value="SUBCUTANEOUS"/>
      <ItemData ItemOID="IT.EC.ECLOT" Value="SDS580-359"/>
      <ItemData ItemOID="IT.EC.ECPSTRG" Value="10.8"/>
      <ItemData ItemOID="IT.EC.ECPSTRGU" Value="g/L"/>
      <ItemData ItemOID="IT.EC.EPOCH" Value="TREATMENT"/>
      <ItemData ItemOID="IT.EC.ECSTDTC" Value="2012-12-31"/>
      <ItemData ItemOID="IT.EC.ECENDTC" Value="2012-12-31"/>
      <ItemData ItemOID="IT.EC.ECSTDY" Value="47"/>
      <ItemData ItemOID="IT.EC.ECENDY" Value="47"/>
    </ItemGroupData>
    <ItemGroupData ItemGroupOID="IG.EC" data:ItemGroupDataSeq="103">
      <ItemData ItemOID="IT.EC.STUDYID" Value="CDISCPILOT01"/>
      <ItemData ItemOID="IT.EC.DOMAIN" Value="EC"/>
      <ItemData ItemOID="IT.EC.USUBJID" Value="CDISC002"/>
      <ItemData ItemOID="IT.EC.SPDEVID" Value="DEV0002"/>
      <ItemData ItemOID="IT.EC.ECSEQ" Value="48"/>
      <ItemData ItemOID="IT.EC.ECTRT" Value="ZANOMALINE"/>
      <ItemData ItemOID="IT.EC.ECPRESP" Value="Y"/>
      <ItemData ItemOID="IT.EC.ECOCCUR" Value="Y"/>
      <ItemData ItemOID="IT.EC.ECDOSE" Value="5"/>
      <ItemData ItemOID="IT.EC.ECDOSU" Value="mL"/>
      <ItemData ItemOID="IT.EC.ECDOSFRM" Value="INJECTION"/>
      <ItemData ItemOID="IT.EC.ECDOSFRQ" Value="QD"/>
      <ItemData ItemOID="IT.EC.ECROUTE" Value="SUBCUTANEOUS"/>
      <ItemData ItemOID="IT.EC.ECLOT" Value="SDS580-359"/>
      <ItemData ItemOID="IT.EC.ECPSTRG" Value="10.8"/>
      <ItemData ItemOID="IT.EC.ECPSTRGU" Value="g/L"/>
      <ItemData ItemOID="IT.EC.EPOCH" Value="TREATMENT"/>
      <ItemData ItemOID="IT.EC.ECSTDTC" Value="2013-01-01"/>
      <ItemData ItemOID="IT.EC.ECENDTC" Value="2013-01-01"/>
      <ItemData ItemOID="IT.EC.ECSTDY" Value="48"/>
      <ItemData ItemOID="IT.EC.ECENDY" Value="48"/>
    </ItemGroupData>
    <ItemGroupData ItemGroupOID="IG.EC" data:ItemGroupDataSeq="104">
      <ItemData ItemOID="IT.EC.STUDYID" Value="CDISCPILOT01"/>
      <ItemData ItemOID="IT.EC.DOMAIN" Value="EC"/>
      <ItemData ItemOID="IT.EC.USUBJID" Value="CDISC002"/>
      <ItemData ItemOID="IT.EC.SPDEVID" Value="DEV0002"/>
      <ItemData ItemOID="IT.EC.ECSEQ" Value="49"/>
      <ItemData ItemOID="IT.EC.ECTRT" Value="ZANOMALINE"/>
      <ItemData ItemOID="IT.EC.ECPRESP" Value="Y"/>
      <ItemData ItemOID="IT.EC.ECOCCUR" Value="Y"/>
      <ItemData ItemOID="IT.EC.ECDOSE" Value="5"/>
      <ItemData ItemOID="IT.EC.ECDOSU" Value="mL"/>
      <ItemData ItemOID="IT.EC.ECDOSFRM" Value="INJECTION"/>
      <ItemData ItemOID="IT.EC.ECDOSFRQ" Value="QD"/>
      <ItemData ItemOID="IT.EC.ECROUTE" Value="SUBCUTANEOUS"/>
      <ItemData ItemOID="IT.EC.ECLOT" Value="SDS580-359"/>
      <ItemData ItemOID="IT.EC.ECPSTRG" Value="10.8"/>
      <ItemData ItemOID="IT.EC.ECPSTRGU" Value="g/L"/>
      <ItemData ItemOID="IT.EC.EPOCH" Value="TREATMENT"/>
      <ItemData ItemOID="IT.EC.ECSTDTC" Value="2013-01-02"/>
      <ItemData ItemOID="IT.EC.ECENDTC" Value="2013-01-02"/>
      <ItemData ItemOID="IT.EC.ECSTDY" Value="49"/>
      <ItemData ItemOID="IT.EC.ECENDY" Value="49"/>
    </ItemGroupData>
    <ItemGroupData ItemGroupOID="IG.EC" data:ItemGroupDataSeq="105">
      <ItemData ItemOID="IT.EC.STUDYID" Value="CDISCPILOT01"/>
      <ItemData ItemOID="IT.EC.DOMAIN" Value="EC"/>
      <ItemData ItemOID="IT.EC.USUBJID" Value="CDISC002"/>
      <ItemData ItemOID="IT.EC.SPDEVID" Value="DEV0002"/>
      <ItemData ItemOID="IT.EC.ECSEQ" Value="50"/>
      <ItemData ItemOID="IT.EC.ECTRT" Value="ZANOMALINE"/>
      <ItemData ItemOID="IT.EC.ECPRESP" Value="Y"/>
      <ItemData ItemOID="IT.EC.ECOCCUR" Value="Y"/>
      <ItemData ItemOID="IT.EC.ECDOSE" Value="5"/>
      <ItemData ItemOID="IT.EC.ECDOSU" Value="mL"/>
      <ItemData ItemOID="IT.EC.ECDOSFRM" Value="INJECTION"/>
      <ItemData ItemOID="IT.EC.ECDOSFRQ" Value="QD"/>
      <ItemData ItemOID="IT.EC.ECROUTE" Value="SUBCUTANEOUS"/>
      <ItemData ItemOID="IT.EC.ECLOT" Value="SDS580-359"/>
      <ItemData ItemOID="IT.EC.ECPSTRG" Value="10.8"/>
      <ItemData ItemOID="IT.EC.ECPSTRGU" Value="g/L"/>
      <ItemData ItemOID="IT.EC.EPOCH" Value="TREATMENT"/>
      <ItemData ItemOID="IT.EC.ECSTDTC" Value="2013-01-03"/>
      <ItemData ItemOID="IT.EC.ECENDTC" Value="2013-01-03"/>
      <ItemData ItemOID="IT.EC.ECSTDY" Value="50"/>
      <ItemData ItemOID="IT.EC.ECENDY" Value="50"/>
    </ItemGroupData>
    <ItemGroupData ItemGroupOID="IG.EC" data:ItemGroupDataSeq="106">
      <ItemData ItemOID="IT.EC.STUDYID" Value="CDISCPILOT01"/>
      <ItemData ItemOID="IT.EC.DOMAIN" Value="EC"/>
      <ItemData ItemOID="IT.EC.USUBJID" Value="CDISC002"/>
      <ItemData ItemOID="IT.EC.SPDEVID" Value="DEV0002"/>
      <ItemData ItemOID="IT.EC.ECSEQ" Value="51"/>
      <ItemData ItemOID="IT.EC.ECTRT" Value="ZANOMALINE"/>
      <ItemData ItemOID="IT.EC.ECPRESP" Value="Y"/>
      <ItemData ItemOID="IT.EC.ECOCCUR" Value="Y"/>
      <ItemData ItemOID="IT.EC.ECDOSE" Value="5"/>
      <ItemData ItemOID="IT.EC.ECDOSU" Value="mL"/>
      <ItemData ItemOID="IT.EC.ECDOSFRM" Value="INJECTION"/>
      <ItemData ItemOID="IT.EC.ECDOSFRQ" Value="QD"/>
      <ItemData ItemOID="IT.EC.ECROUTE" Value="SUBCUTANEOUS"/>
      <ItemData ItemOID="IT.EC.ECLOT" Value="SDS580-359"/>
      <ItemData ItemOID="IT.EC.ECPSTRG" Value="10.8"/>
      <ItemData ItemOID="IT.EC.ECPSTRGU" Value="g/L"/>
      <ItemData ItemOID="IT.EC.EPOCH" Value="TREATMENT"/>
      <ItemData ItemOID="IT.EC.ECSTDTC" Value="2013-01-04"/>
      <ItemData ItemOID="IT.EC.ECENDTC" Value="2013-01-04"/>
      <ItemData ItemOID="IT.EC.ECSTDY" Value="51"/>
      <ItemData ItemOID="IT.EC.ECENDY" Value="51"/>
    </ItemGroupData>
    <ItemGroupData ItemGroupOID="IG.EC" data:ItemGroupDataSeq="107">
      <ItemData ItemOID="IT.EC.STUDYID" Value="CDISCPILOT01"/>
      <ItemData ItemOID="IT.EC.DOMAIN" Value="EC"/>
      <ItemData ItemOID="IT.EC.USUBJID" Value="CDISC002"/>
      <ItemData ItemOID="IT.EC.SPDEVID" Value="DEV0002"/>
      <ItemData ItemOID="IT.EC.ECSEQ" Value="52"/>
      <ItemData ItemOID="IT.EC.ECTRT" Value="ZANOMALINE"/>
      <ItemData ItemOID="IT.EC.ECPRESP" Value="Y"/>
      <ItemData ItemOID="IT.EC.ECOCCUR" Value="Y"/>
      <ItemData ItemOID="IT.EC.ECDOSE" Value="5"/>
      <ItemData ItemOID="IT.EC.ECDOSU" Value="mL"/>
      <ItemData ItemOID="IT.EC.ECDOSFRM" Value="INJECTION"/>
      <ItemData ItemOID="IT.EC.ECDOSFRQ" Value="QD"/>
      <ItemData ItemOID="IT.EC.ECROUTE" Value="SUBCUTANEOUS"/>
      <ItemData ItemOID="IT.EC.ECLOT" Value="SDS580-359"/>
      <ItemData ItemOID="IT.EC.ECPSTRG" Value="10.8"/>
      <ItemData ItemOID="IT.EC.ECPSTRGU" Value="g/L"/>
      <ItemData ItemOID="IT.EC.EPOCH" Value="TREATMENT"/>
      <ItemData ItemOID="IT.EC.ECSTDTC" Value="2013-01-05"/>
      <ItemData ItemOID="IT.EC.ECENDTC" Value="2013-01-05"/>
      <ItemData ItemOID="IT.EC.ECSTDY" Value="52"/>
      <ItemData ItemOID="IT.EC.ECENDY" Value="52"/>
    </ItemGroupData>
    <ItemGroupData ItemGroupOID="IG.EC" data:ItemGroupDataSeq="108">
      <ItemData ItemOID="IT.EC.STUDYID" Value="CDISCPILOT01"/>
      <ItemData ItemOID="IT.EC.DOMAIN" Value="EC"/>
      <ItemData ItemOID="IT.EC.USUBJID" Value="CDISC002"/>
      <ItemData ItemOID="IT.EC.SPDEVID" Value="DEV0002"/>
      <ItemData ItemOID="IT.EC.ECSEQ" Value="53"/>
      <ItemData ItemOID="IT.EC.ECTRT" Value="ZANOMALINE"/>
      <ItemData ItemOID="IT.EC.ECPRESP" Value="Y"/>
      <ItemData ItemOID="IT.EC.ECOCCUR" Value="Y"/>
      <ItemData ItemOID="IT.EC.ECDOSE" Value="5"/>
      <ItemData ItemOID="IT.EC.ECDOSU" Value="mL"/>
      <ItemData ItemOID="IT.EC.ECDOSFRM" Value="INJECTION"/>
      <ItemData ItemOID="IT.EC.ECDOSFRQ" Value="QD"/>
      <ItemData ItemOID="IT.EC.ECROUTE" Value="SUBCUTANEOUS"/>
      <ItemData ItemOID="IT.EC.ECLOT" Value="SDS580-359"/>
      <ItemData ItemOID="IT.EC.ECPSTRG" Value="10.8"/>
      <ItemData ItemOID="IT.EC.ECPSTRGU" Value="g/L"/>
      <ItemData ItemOID="IT.EC.EPOCH" Value="TREATMENT"/>
      <ItemData ItemOID="IT.EC.ECSTDTC" Value="2013-01-06"/>
      <ItemData ItemOID="IT.EC.ECENDTC" Value="2013-01-06"/>
      <ItemData ItemOID="IT.EC.ECSTDY" Value="53"/>
      <ItemData ItemOID="IT.EC.ECENDY" Value="53"/>
    </ItemGroupData>
    <ItemGroupData ItemGroupOID="IG.EC" data:ItemGroupDataSeq="109">
      <ItemData ItemOID="IT.EC.STUDYID" Value="CDISCPILOT01"/>
      <ItemData ItemOID="IT.EC.DOMAIN" Value="EC"/>
      <ItemData ItemOID="IT.EC.USUBJID" Value="CDISC002"/>
      <ItemData ItemOID="IT.EC.SPDEVID" Value="DEV0002"/>
      <ItemData ItemOID="IT.EC.ECSEQ" Value="54"/>
      <ItemData ItemOID="IT.EC.ECTRT" Value="ZANOMALINE"/>
      <ItemData ItemOID="IT.EC.ECPRESP" Value="Y"/>
      <ItemData ItemOID="IT.EC.ECOCCUR" Value="Y"/>
      <ItemData ItemOID="IT.EC.ECDOSE" Value="5"/>
      <ItemData ItemOID="IT.EC.ECDOSU" Value="mL"/>
      <ItemData ItemOID="IT.EC.ECDOSFRM" Value="INJECTION"/>
      <ItemData ItemOID="IT.EC.ECDOSFRQ" Value="QD"/>
      <ItemData ItemOID="IT.EC.ECROUTE" Value="SUBCUTANEOUS"/>
      <ItemData ItemOID="IT.EC.ECLOT" Value="SDS580-359"/>
      <ItemData ItemOID="IT.EC.ECPSTRG" Value="10.8"/>
      <ItemData ItemOID="IT.EC.ECPSTRGU" Value="g/L"/>
      <ItemData ItemOID="IT.EC.EPOCH" Value="TREATMENT"/>
      <ItemData ItemOID="IT.EC.ECSTDTC" Value="2013-01-07"/>
      <ItemData ItemOID="IT.EC.ECENDTC" Value="2013-01-07"/>
      <ItemData ItemOID="IT.EC.ECSTDY" Value="54"/>
      <ItemData ItemOID="IT.EC.ECENDY" Value="54"/>
    </ItemGroupData>
    <ItemGroupData ItemGroupOID="IG.EC" data:ItemGroupDataSeq="110">
      <ItemData ItemOID="IT.EC.STUDYID" Value="CDISCPILOT01"/>
      <ItemData ItemOID="IT.EC.DOMAIN" Value="EC"/>
      <ItemData ItemOID="IT.EC.USUBJID" Value="CDISC002"/>
      <ItemData ItemOID="IT.EC.SPDEVID" Value="DEV0002"/>
      <ItemData ItemOID="IT.EC.ECSEQ" Value="55"/>
      <ItemData ItemOID="IT.EC.ECTRT" Value="ZANOMALINE"/>
      <ItemData ItemOID="IT.EC.ECPRESP" Value="Y"/>
      <ItemData ItemOID="IT.EC.ECOCCUR" Value="Y"/>
      <ItemData ItemOID="IT.EC.ECDOSE" Value="5"/>
      <ItemData ItemOID="IT.EC.ECDOSU" Value="mL"/>
      <ItemData ItemOID="IT.EC.ECDOSFRM" Value="INJECTION"/>
      <ItemData ItemOID="IT.EC.ECDOSFRQ" Value="QD"/>
      <ItemData ItemOID="IT.EC.ECROUTE" Value="SUBCUTANEOUS"/>
      <ItemData ItemOID="IT.EC.ECLOT" Value="SDS580-359"/>
      <ItemData ItemOID="IT.EC.ECPSTRG" Value="10.8"/>
      <ItemData ItemOID="IT.EC.ECPSTRGU" Value="g/L"/>
      <ItemData ItemOID="IT.EC.EPOCH" Value="TREATMENT"/>
      <ItemData ItemOID="IT.EC.ECSTDTC" Value="2013-01-08"/>
      <ItemData ItemOID="IT.EC.ECENDTC" Value="2013-01-08"/>
      <ItemData ItemOID="IT.EC.ECSTDY" Value="55"/>
      <ItemData ItemOID="IT.EC.ECENDY" Value="55"/>
    </ItemGroupData>
    <ItemGroupData ItemGroupOID="IG.EC" data:ItemGroupDataSeq="111">
      <ItemData ItemOID="IT.EC.STUDYID" Value="CDISCPILOT01"/>
      <ItemData ItemOID="IT.EC.DOMAIN" Value="EC"/>
      <ItemData ItemOID="IT.EC.USUBJID" Value="CDISC002"/>
      <ItemData ItemOID="IT.EC.SPDEVID" Value="DEV0002"/>
      <ItemData ItemOID="IT.EC.ECSEQ" Value="56"/>
      <ItemData ItemOID="IT.EC.ECTRT" Value="ZANOMALINE"/>
      <ItemData ItemOID="IT.EC.ECPRESP" Value="Y"/>
      <ItemData ItemOID="IT.EC.ECOCCUR" Value="Y"/>
      <ItemData ItemOID="IT.EC.ECDOSE" Value="5"/>
      <ItemData ItemOID="IT.EC.ECDOSU" Value="mL"/>
      <ItemData ItemOID="IT.EC.ECDOSFRM" Value="INJECTION"/>
      <ItemData ItemOID="IT.EC.ECDOSFRQ" Value="QD"/>
      <ItemData ItemOID="IT.EC.ECROUTE" Value="SUBCUTANEOUS"/>
      <ItemData ItemOID="IT.EC.ECLOT" Value="SDS580-359"/>
      <ItemData ItemOID="IT.EC.ECPSTRG" Value="10.8"/>
      <ItemData ItemOID="IT.EC.ECPSTRGU" Value="g/L"/>
      <ItemData ItemOID="IT.EC.EPOCH" Value="TREATMENT"/>
      <ItemData ItemOID="IT.EC.ECSTDTC" Value="2013-01-09"/>
      <ItemData ItemOID="IT.EC.ECENDTC" Value="2013-01-09"/>
      <ItemData ItemOID="IT.EC.ECSTDY" Value="56"/>
      <ItemData ItemOID="IT.EC.ECENDY" Value="56"/>
    </ItemGroupData>
    <ItemGroupData ItemGroupOID="IG.EC" data:ItemGroupDataSeq="112">
      <ItemData ItemOID="IT.EC.STUDYID" Value="CDISCPILOT01"/>
      <ItemData ItemOID="IT.EC.DOMAIN" Value="EC"/>
      <ItemData ItemOID="IT.EC.USUBJID" Value="CDISC002"/>
      <ItemData ItemOID="IT.EC.SPDEVID" Value="DEV0002"/>
      <ItemData ItemOID="IT.EC.ECSEQ" Value="57"/>
      <ItemData ItemOID="IT.EC.ECTRT" Value="ZANOMALINE"/>
      <ItemData ItemOID="IT.EC.ECPRESP" Value="Y"/>
      <ItemData ItemOID="IT.EC.ECOCCUR" Value="Y"/>
      <ItemData ItemOID="IT.EC.ECDOSE" Value="5"/>
      <ItemData ItemOID="IT.EC.ECDOSU" Value="mL"/>
      <ItemData ItemOID="IT.EC.ECDOSFRM" Value="INJECTION"/>
      <ItemData ItemOID="IT.EC.ECDOSFRQ" Value="QD"/>
      <ItemData ItemOID="IT.EC.ECROUTE" Value="SUBCUTANEOUS"/>
      <ItemData ItemOID="IT.EC.ECLOT" Value="SDS580-359"/>
      <ItemData ItemOID="IT.EC.ECPSTRG" Value="10.8"/>
      <ItemData ItemOID="IT.EC.ECPSTRGU" Value="g/L"/>
      <ItemData ItemOID="IT.EC.EPOCH" Value="TREATMENT"/>
      <ItemData ItemOID="IT.EC.ECSTDTC" Value="2013-01-10"/>
      <ItemData ItemOID="IT.EC.ECENDTC" Value="2013-01-10"/>
      <ItemData ItemOID="IT.EC.ECSTDY" Value="57"/>
      <ItemData ItemOID="IT.EC.ECENDY" Value="57"/>
    </ItemGroupData>
    <ItemGroupData ItemGroupOID="IG.EC" data:ItemGroupDataSeq="113">
      <ItemData ItemOID="IT.EC.STUDYID" Value="CDISCPILOT01"/>
      <ItemData ItemOID="IT.EC.DOMAIN" Value="EC"/>
      <ItemData ItemOID="IT.EC.USUBJID" Value="CDISC002"/>
      <ItemData ItemOID="IT.EC.SPDEVID" Value="DEV0002"/>
      <ItemData ItemOID="IT.EC.ECSEQ" Value="58"/>
      <ItemData ItemOID="IT.EC.ECTRT" Value="ZANOMALINE"/>
      <ItemData ItemOID="IT.EC.ECPRESP" Value="Y"/>
      <ItemData ItemOID="IT.EC.ECOCCUR" Value="Y"/>
      <ItemData ItemOID="IT.EC.ECDOSE" Value="5"/>
      <ItemData ItemOID="IT.EC.ECDOSU" Value="mL"/>
      <ItemData ItemOID="IT.EC.ECDOSFRM" Value="INJECTION"/>
      <ItemData ItemOID="IT.EC.ECDOSFRQ" Value="QD"/>
      <ItemData ItemOID="IT.EC.ECROUTE" Value="SUBCUTANEOUS"/>
      <ItemData ItemOID="IT.EC.ECLOT" Value="SDS580-359"/>
      <ItemData ItemOID="IT.EC.ECPSTRG" Value="10.8"/>
      <ItemData ItemOID="IT.EC.ECPSTRGU" Value="g/L"/>
      <ItemData ItemOID="IT.EC.EPOCH" Value="TREATMENT"/>
      <ItemData ItemOID="IT.EC.ECSTDTC" Value="2013-01-11"/>
      <ItemData ItemOID="IT.EC.ECENDTC" Value="2013-01-11"/>
      <ItemData ItemOID="IT.EC.ECSTDY" Value="58"/>
      <ItemData ItemOID="IT.EC.ECENDY" Value="58"/>
    </ItemGroupData>
    <ItemGroupData ItemGroupOID="IG.EC" data:ItemGroupDataSeq="114">
      <ItemData ItemOID="IT.EC.STUDYID" Value="CDISCPILOT01"/>
      <ItemData ItemOID="IT.EC.DOMAIN" Value="EC"/>
      <ItemData ItemOID="IT.EC.USUBJID" Value="CDISC002"/>
      <ItemData ItemOID="IT.EC.SPDEVID" Value="DEV0002"/>
      <ItemData ItemOID="IT.EC.ECSEQ" Value="59"/>
      <ItemData ItemOID="IT.EC.ECTRT" Value="ZANOMALINE"/>
      <ItemData ItemOID="IT.EC.ECPRESP" Value="Y"/>
      <ItemData ItemOID="IT.EC.ECOCCUR" Value="Y"/>
      <ItemData ItemOID="IT.EC.ECDOSE" Value="5"/>
      <ItemData ItemOID="IT.EC.ECDOSU" Value="mL"/>
      <ItemData ItemOID="IT.EC.ECDOSFRM" Value="INJECTION"/>
      <ItemData ItemOID="IT.EC.ECDOSFRQ" Value="QD"/>
      <ItemData ItemOID="IT.EC.ECROUTE" Value="SUBCUTANEOUS"/>
      <ItemData ItemOID="IT.EC.ECLOT" Value="SDS580-359"/>
      <ItemData ItemOID="IT.EC.ECPSTRG" Value="10.8"/>
      <ItemData ItemOID="IT.EC.ECPSTRGU" Value="g/L"/>
      <ItemData ItemOID="IT.EC.EPOCH" Value="TREATMENT"/>
      <ItemData ItemOID="IT.EC.ECSTDTC" Value="2013-01-12"/>
      <ItemData ItemOID="IT.EC.ECENDTC" Value="2013-01-12"/>
      <ItemData ItemOID="IT.EC.ECSTDY" Value="59"/>
      <ItemData ItemOID="IT.EC.ECENDY" Value="59"/>
    </ItemGroupData>
    <ItemGroupData ItemGroupOID="IG.EC" data:ItemGroupDataSeq="115">
      <ItemData ItemOID="IT.EC.STUDYID" Value="CDISCPILOT01"/>
      <ItemData ItemOID="IT.EC.DOMAIN" Value="EC"/>
      <ItemData ItemOID="IT.EC.USUBJID" Value="CDISC003"/>
      <ItemData ItemOID="IT.EC.SPDEVID" Value="DEV0003"/>
      <ItemData ItemOID="IT.EC.ECSEQ" Value="1"/>
      <ItemData ItemOID="IT.EC.ECTRT" Value="ZANOMALINE"/>
      <ItemData ItemOID="IT.EC.ECPRESP" Value="Y"/>
      <ItemData ItemOID="IT.EC.ECOCCUR" Value="Y"/>
      <ItemData ItemOID="IT.EC.ECDOSE" Value="5"/>
      <ItemData ItemOID="IT.EC.ECDOSU" Value="mL"/>
      <ItemData ItemOID="IT.EC.ECDOSFRM" Value="INJECTION"/>
      <ItemData ItemOID="IT.EC.ECDOSFRQ" Value="QD"/>
      <ItemData ItemOID="IT.EC.ECROUTE" Value="SUBCUTANEOUS"/>
      <ItemData ItemOID="IT.EC.ECLOT" Value="SDS580-359"/>
      <ItemData ItemOID="IT.EC.ECPSTRG" Value="10.8"/>
      <ItemData ItemOID="IT.EC.ECPSTRGU" Value="g/L"/>
      <ItemData ItemOID="IT.EC.EPOCH" Value="TREATMENT"/>
      <ItemData ItemOID="IT.EC.ECSTDTC" Value="2013-08-29"/>
      <ItemData ItemOID="IT.EC.ECENDTC" Value="2013-08-29"/>
      <ItemData ItemOID="IT.EC.ECSTDY" Value="1"/>
      <ItemData ItemOID="IT.EC.ECENDY" Value="1"/>
    </ItemGroupData>
    <ItemGroupData ItemGroupOID="IG.EC" data:ItemGroupDataSeq="116">
      <ItemData ItemOID="IT.EC.STUDYID" Value="CDISCPILOT01"/>
      <ItemData ItemOID="IT.EC.DOMAIN" Value="EC"/>
      <ItemData ItemOID="IT.EC.USUBJID" Value="CDISC003"/>
      <ItemData ItemOID="IT.EC.SPDEVID" Value="DEV0003"/>
      <ItemData ItemOID="IT.EC.ECSEQ" Value="2"/>
      <ItemData ItemOID="IT.EC.ECTRT" Value="ZANOMALINE"/>
      <ItemData ItemOID="IT.EC.ECPRESP" Value="Y"/>
      <ItemData ItemOID="IT.EC.ECOCCUR" Value="Y"/>
      <ItemData ItemOID="IT.EC.ECDOSE" Value="5"/>
      <ItemData ItemOID="IT.EC.ECDOSU" Value="mL"/>
      <ItemData ItemOID="IT.EC.ECDOSFRM" Value="INJECTION"/>
      <ItemData ItemOID="IT.EC.ECDOSFRQ" Value="QD"/>
      <ItemData ItemOID="IT.EC.ECROUTE" Value="SUBCUTANEOUS"/>
      <ItemData ItemOID="IT.EC.ECLOT" Value="SDS580-359"/>
      <ItemData ItemOID="IT.EC.ECPSTRG" Value="10.8"/>
      <ItemData ItemOID="IT.EC.ECPSTRGU" Value="g/L"/>
      <ItemData ItemOID="IT.EC.EPOCH" Value="TREATMENT"/>
      <ItemData ItemOID="IT.EC.ECSTDTC" Value="2013-08-30"/>
      <ItemData ItemOID="IT.EC.ECENDTC" Value="2013-08-30"/>
      <ItemData ItemOID="IT.EC.ECSTDY" Value="2"/>
      <ItemData ItemOID="IT.EC.ECENDY" Value="2"/>
    </ItemGroupData>
    <ItemGroupData ItemGroupOID="IG.EC" data:ItemGroupDataSeq="117">
      <ItemData ItemOID="IT.EC.STUDYID" Value="CDISCPILOT01"/>
      <ItemData ItemOID="IT.EC.DOMAIN" Value="EC"/>
      <ItemData ItemOID="IT.EC.USUBJID" Value="CDISC003"/>
      <ItemData ItemOID="IT.EC.SPDEVID" Value="DEV0003"/>
      <ItemData ItemOID="IT.EC.ECSEQ" Value="3"/>
      <ItemData ItemOID="IT.EC.ECTRT" Value="ZANOMALINE"/>
      <ItemData ItemOID="IT.EC.ECPRESP" Value="Y"/>
      <ItemData ItemOID="IT.EC.ECOCCUR" Value="Y"/>
      <ItemData ItemOID="IT.EC.ECDOSE" Value="5"/>
      <ItemData ItemOID="IT.EC.ECDOSU" Value="mL"/>
      <ItemData ItemOID="IT.EC.ECDOSFRM" Value="INJECTION"/>
      <ItemData ItemOID="IT.EC.ECDOSFRQ" Value="QD"/>
      <ItemData ItemOID="IT.EC.ECROUTE" Value="SUBCUTANEOUS"/>
      <ItemData ItemOID="IT.EC.ECLOT" Value="SDS580-359"/>
      <ItemData ItemOID="IT.EC.ECPSTRG" Value="10.8"/>
      <ItemData ItemOID="IT.EC.ECPSTRGU" Value="g/L"/>
      <ItemData ItemOID="IT.EC.EPOCH" Value="TREATMENT"/>
      <ItemData ItemOID="IT.EC.ECSTDTC" Value="2013-08-31"/>
      <ItemData ItemOID="IT.EC.ECENDTC" Value="2013-08-31"/>
      <ItemData ItemOID="IT.EC.ECSTDY" Value="3"/>
      <ItemData ItemOID="IT.EC.ECENDY" Value="3"/>
    </ItemGroupData>
    <ItemGroupData ItemGroupOID="IG.EC" data:ItemGroupDataSeq="118">
      <ItemData ItemOID="IT.EC.STUDYID" Value="CDISCPILOT01"/>
      <ItemData ItemOID="IT.EC.DOMAIN" Value="EC"/>
      <ItemData ItemOID="IT.EC.USUBJID" Value="CDISC003"/>
      <ItemData ItemOID="IT.EC.SPDEVID" Value="DEV0003"/>
      <ItemData ItemOID="IT.EC.ECSEQ" Value="4"/>
      <ItemData ItemOID="IT.EC.ECTRT" Value="ZANOMALINE"/>
      <ItemData ItemOID="IT.EC.ECPRESP" Value="Y"/>
      <ItemData ItemOID="IT.EC.ECOCCUR" Value="Y"/>
      <ItemData ItemOID="IT.EC.ECDOSE" Value="5"/>
      <ItemData ItemOID="IT.EC.ECDOSU" Value="mL"/>
      <ItemData ItemOID="IT.EC.ECDOSFRM" Value="INJECTION"/>
      <ItemData ItemOID="IT.EC.ECDOSFRQ" Value="QD"/>
      <ItemData ItemOID="IT.EC.ECROUTE" Value="SUBCUTANEOUS"/>
      <ItemData ItemOID="IT.EC.ECLOT" Value="SDS580-359"/>
      <ItemData ItemOID="IT.EC.ECPSTRG" Value="10.8"/>
      <ItemData ItemOID="IT.EC.ECPSTRGU" Value="g/L"/>
      <ItemData ItemOID="IT.EC.EPOCH" Value="TREATMENT"/>
      <ItemData ItemOID="IT.EC.ECSTDTC" Value="2013-09-01"/>
      <ItemData ItemOID="IT.EC.ECENDTC" Value="2013-09-01"/>
      <ItemData ItemOID="IT.EC.ECSTDY" Value="4"/>
      <ItemData ItemOID="IT.EC.ECENDY" Value="4"/>
    </ItemGroupData>
    <ItemGroupData ItemGroupOID="IG.EC" data:ItemGroupDataSeq="119">
      <ItemData ItemOID="IT.EC.STUDYID" Value="CDISCPILOT01"/>
      <ItemData ItemOID="IT.EC.DOMAIN" Value="EC"/>
      <ItemData ItemOID="IT.EC.USUBJID" Value="CDISC003"/>
      <ItemData ItemOID="IT.EC.SPDEVID" Value="DEV0003"/>
      <ItemData ItemOID="IT.EC.ECSEQ" Value="5"/>
      <ItemData ItemOID="IT.EC.ECTRT" Value="ZANOMALINE"/>
      <ItemData ItemOID="IT.EC.ECPRESP" Value="Y"/>
      <ItemData ItemOID="IT.EC.ECOCCUR" Value="Y"/>
      <ItemData ItemOID="IT.EC.ECDOSE" Value="5"/>
      <ItemData ItemOID="IT.EC.ECDOSU" Value="mL"/>
      <ItemData ItemOID="IT.EC.ECDOSFRM" Value="INJECTION"/>
      <ItemData ItemOID="IT.EC.ECDOSFRQ" Value="QD"/>
      <ItemData ItemOID="IT.EC.ECROUTE" Value="SUBCUTANEOUS"/>
      <ItemData ItemOID="IT.EC.ECLOT" Value="SDS580-359"/>
      <ItemData ItemOID="IT.EC.ECPSTRG" Value="10.8"/>
      <ItemData ItemOID="IT.EC.ECPSTRGU" Value="g/L"/>
      <ItemData ItemOID="IT.EC.EPOCH" Value="TREATMENT"/>
      <ItemData ItemOID="IT.EC.ECSTDTC" Value="2013-09-02"/>
      <ItemData ItemOID="IT.EC.ECENDTC" Value="2013-09-02"/>
      <ItemData ItemOID="IT.EC.ECSTDY" Value="5"/>
      <ItemData ItemOID="IT.EC.ECENDY" Value="5"/>
    </ItemGroupData>
    <ItemGroupData ItemGroupOID="IG.EC" data:ItemGroupDataSeq="120">
      <ItemData ItemOID="IT.EC.STUDYID" Value="CDISCPILOT01"/>
      <ItemData ItemOID="IT.EC.DOMAIN" Value="EC"/>
      <ItemData ItemOID="IT.EC.USUBJID" Value="CDISC003"/>
      <ItemData ItemOID="IT.EC.SPDEVID" Value="DEV0003"/>
      <ItemData ItemOID="IT.EC.ECSEQ" Value="6"/>
      <ItemData ItemOID="IT.EC.ECTRT" Value="ZANOMALINE"/>
      <ItemData ItemOID="IT.EC.ECPRESP" Value="Y"/>
      <ItemData ItemOID="IT.EC.ECOCCUR" Value="Y"/>
      <ItemData ItemOID="IT.EC.ECDOSE" Value="5"/>
      <ItemData ItemOID="IT.EC.ECDOSU" Value="mL"/>
      <ItemData ItemOID="IT.EC.ECDOSFRM" Value="INJECTION"/>
      <ItemData ItemOID="IT.EC.ECDOSFRQ" Value="QD"/>
      <ItemData ItemOID="IT.EC.ECROUTE" Value="SUBCUTANEOUS"/>
      <ItemData ItemOID="IT.EC.ECLOT" Value="SDS580-359"/>
      <ItemData ItemOID="IT.EC.ECPSTRG" Value="10.8"/>
      <ItemData ItemOID="IT.EC.ECPSTRGU" Value="g/L"/>
      <ItemData ItemOID="IT.EC.EPOCH" Value="TREATMENT"/>
      <ItemData ItemOID="IT.EC.ECSTDTC" Value="2013-09-03"/>
      <ItemData ItemOID="IT.EC.ECENDTC" Value="2013-09-03"/>
      <ItemData ItemOID="IT.EC.ECSTDY" Value="6"/>
      <ItemData ItemOID="IT.EC.ECENDY" Value="6"/>
    </ItemGroupData>
    <ItemGroupData ItemGroupOID="IG.EC" data:ItemGroupDataSeq="121">
      <ItemData ItemOID="IT.EC.STUDYID" Value="CDISCPILOT01"/>
      <ItemData ItemOID="IT.EC.DOMAIN" Value="EC"/>
      <ItemData ItemOID="IT.EC.USUBJID" Value="CDISC003"/>
      <ItemData ItemOID="IT.EC.SPDEVID" Value="DEV0003"/>
      <ItemData ItemOID="IT.EC.ECSEQ" Value="7"/>
      <ItemData ItemOID="IT.EC.ECTRT" Value="ZANOMALINE"/>
      <ItemData ItemOID="IT.EC.ECPRESP" Value="Y"/>
      <ItemData ItemOID="IT.EC.ECOCCUR" Value="Y"/>
      <ItemData ItemOID="IT.EC.ECDOSE" Value="5"/>
      <ItemData ItemOID="IT.EC.ECDOSU" Value="mL"/>
      <ItemData ItemOID="IT.EC.ECDOSFRM" Value="INJECTION"/>
      <ItemData ItemOID="IT.EC.ECDOSFRQ" Value="QD"/>
      <ItemData ItemOID="IT.EC.ECROUTE" Value="SUBCUTANEOUS"/>
      <ItemData ItemOID="IT.EC.ECLOT" Value="SDS580-359"/>
      <ItemData ItemOID="IT.EC.ECPSTRG" Value="10.8"/>
      <ItemData ItemOID="IT.EC.ECPSTRGU" Value="g/L"/>
      <ItemData ItemOID="IT.EC.EPOCH" Value="TREATMENT"/>
      <ItemData ItemOID="IT.EC.ECSTDTC" Value="2013-09-04"/>
      <ItemData ItemOID="IT.EC.ECENDTC" Value="2013-09-04"/>
      <ItemData ItemOID="IT.EC.ECSTDY" Value="7"/>
      <ItemData ItemOID="IT.EC.ECENDY" Value="7"/>
    </ItemGroupData>
    <ItemGroupData ItemGroupOID="IG.EC" data:ItemGroupDataSeq="122">
      <ItemData ItemOID="IT.EC.STUDYID" Value="CDISCPILOT01"/>
      <ItemData ItemOID="IT.EC.DOMAIN" Value="EC"/>
      <ItemData ItemOID="IT.EC.USUBJID" Value="CDISC003"/>
      <ItemData ItemOID="IT.EC.SPDEVID" Value="DEV0003"/>
      <ItemData ItemOID="IT.EC.ECSEQ" Value="8"/>
      <ItemData ItemOID="IT.EC.ECTRT" Value="ZANOMALINE"/>
      <ItemData ItemOID="IT.EC.ECPRESP" Value="Y"/>
      <ItemData ItemOID="IT.EC.ECOCCUR" Value="Y"/>
      <ItemData ItemOID="IT.EC.ECDOSE" Value="5"/>
      <ItemData ItemOID="IT.EC.ECDOSU" Value="mL"/>
      <ItemData ItemOID="IT.EC.ECDOSFRM" Value="INJECTION"/>
      <ItemData ItemOID="IT.EC.ECDOSFRQ" Value="QD"/>
      <ItemData ItemOID="IT.EC.ECROUTE" Value="SUBCUTANEOUS"/>
      <ItemData ItemOID="IT.EC.ECLOT" Value="SDS580-359"/>
      <ItemData ItemOID="IT.EC.ECPSTRG" Value="10.8"/>
      <ItemData ItemOID="IT.EC.ECPSTRGU" Value="g/L"/>
      <ItemData ItemOID="IT.EC.EPOCH" Value="TREATMENT"/>
      <ItemData ItemOID="IT.EC.ECSTDTC" Value="2013-09-05"/>
      <ItemData ItemOID="IT.EC.ECENDTC" Value="2013-09-05"/>
      <ItemData ItemOID="IT.EC.ECSTDY" Value="8"/>
      <ItemData ItemOID="IT.EC.ECENDY" Value="8"/>
    </ItemGroupData>
    <ItemGroupData ItemGroupOID="IG.EC" data:ItemGroupDataSeq="123">
      <ItemData ItemOID="IT.EC.STUDYID" Value="CDISCPILOT01"/>
      <ItemData ItemOID="IT.EC.DOMAIN" Value="EC"/>
      <ItemData ItemOID="IT.EC.USUBJID" Value="CDISC003"/>
      <ItemData ItemOID="IT.EC.SPDEVID" Value="DEV0003"/>
      <ItemData ItemOID="IT.EC.ECSEQ" Value="9"/>
      <ItemData ItemOID="IT.EC.ECTRT" Value="ZANOMALINE"/>
      <ItemData ItemOID="IT.EC.ECPRESP" Value="Y"/>
      <ItemData ItemOID="IT.EC.ECOCCUR" Value="Y"/>
      <ItemData ItemOID="IT.EC.ECDOSE" Value="5"/>
      <ItemData ItemOID="IT.EC.ECDOSU" Value="mL"/>
      <ItemData ItemOID="IT.EC.ECDOSFRM" Value="INJECTION"/>
      <ItemData ItemOID="IT.EC.ECDOSFRQ" Value="QD"/>
      <ItemData ItemOID="IT.EC.ECROUTE" Value="SUBCUTANEOUS"/>
      <ItemData ItemOID="IT.EC.ECLOT" Value="SDS580-359"/>
      <ItemData ItemOID="IT.EC.ECPSTRG" Value="10.8"/>
      <ItemData ItemOID="IT.EC.ECPSTRGU" Value="g/L"/>
      <ItemData ItemOID="IT.EC.EPOCH" Value="TREATMENT"/>
      <ItemData ItemOID="IT.EC.ECSTDTC" Value="2013-09-06"/>
      <ItemData ItemOID="IT.EC.ECENDTC" Value="2013-09-06"/>
      <ItemData ItemOID="IT.EC.ECSTDY" Value="9"/>
      <ItemData ItemOID="IT.EC.ECENDY" Value="9"/>
    </ItemGroupData>
    <ItemGroupData ItemGroupOID="IG.EC" data:ItemGroupDataSeq="124">
      <ItemData ItemOID="IT.EC.STUDYID" Value="CDISCPILOT01"/>
      <ItemData ItemOID="IT.EC.DOMAIN" Value="EC"/>
      <ItemData ItemOID="IT.EC.USUBJID" Value="CDISC003"/>
      <ItemData ItemOID="IT.EC.SPDEVID" Value="DEV0003"/>
      <ItemData ItemOID="IT.EC.ECSEQ" Value="10"/>
      <ItemData ItemOID="IT.EC.ECTRT" Value="ZANOMALINE"/>
      <ItemData ItemOID="IT.EC.ECPRESP" Value="Y"/>
      <ItemData ItemOID="IT.EC.ECOCCUR" Value="Y"/>
      <ItemData ItemOID="IT.EC.ECDOSE" Value="5"/>
      <ItemData ItemOID="IT.EC.ECDOSU" Value="mL"/>
      <ItemData ItemOID="IT.EC.ECDOSFRM" Value="INJECTION"/>
      <ItemData ItemOID="IT.EC.ECDOSFRQ" Value="QD"/>
      <ItemData ItemOID="IT.EC.ECROUTE" Value="SUBCUTANEOUS"/>
      <ItemData ItemOID="IT.EC.ECLOT" Value="SDS580-359"/>
      <ItemData ItemOID="IT.EC.ECPSTRG" Value="10.8"/>
      <ItemData ItemOID="IT.EC.ECPSTRGU" Value="g/L"/>
      <ItemData ItemOID="IT.EC.EPOCH" Value="TREATMENT"/>
      <ItemData ItemOID="IT.EC.ECSTDTC" Value="2013-09-07"/>
      <ItemData ItemOID="IT.EC.ECENDTC" Value="2013-09-07"/>
      <ItemData ItemOID="IT.EC.ECSTDY" Value="10"/>
      <ItemData ItemOID="IT.EC.ECENDY" Value="10"/>
    </ItemGroupData>
    <ItemGroupData ItemGroupOID="IG.EC" data:ItemGroupDataSeq="125">
      <ItemData ItemOID="IT.EC.STUDYID" Value="CDISCPILOT01"/>
      <ItemData ItemOID="IT.EC.DOMAIN" Value="EC"/>
      <ItemData ItemOID="IT.EC.USUBJID" Value="CDISC003"/>
      <ItemData ItemOID="IT.EC.SPDEVID" Value="DEV0003"/>
      <ItemData ItemOID="IT.EC.ECSEQ" Value="11"/>
      <ItemData ItemOID="IT.EC.ECTRT" Value="ZANOMALINE"/>
      <ItemData ItemOID="IT.EC.ECPRESP" Value="Y"/>
      <ItemData ItemOID="IT.EC.ECOCCUR" Value="Y"/>
      <ItemData ItemOID="IT.EC.ECDOSE" Value="5"/>
      <ItemData ItemOID="IT.EC.ECDOSU" Value="mL"/>
      <ItemData ItemOID="IT.EC.ECDOSFRM" Value="INJECTION"/>
      <ItemData ItemOID="IT.EC.ECDOSFRQ" Value="QD"/>
      <ItemData ItemOID="IT.EC.ECROUTE" Value="SUBCUTANEOUS"/>
      <ItemData ItemOID="IT.EC.ECLOT" Value="SDS580-359"/>
      <ItemData ItemOID="IT.EC.ECPSTRG" Value="10.8"/>
      <ItemData ItemOID="IT.EC.ECPSTRGU" Value="g/L"/>
      <ItemData ItemOID="IT.EC.EPOCH" Value="TREATMENT"/>
      <ItemData ItemOID="IT.EC.ECSTDTC" Value="2013-09-08"/>
      <ItemData ItemOID="IT.EC.ECENDTC" Value="2013-09-08"/>
      <ItemData ItemOID="IT.EC.ECSTDY" Value="11"/>
      <ItemData ItemOID="IT.EC.ECENDY" Value="11"/>
    </ItemGroupData>
    <ItemGroupData ItemGroupOID="IG.EC" data:ItemGroupDataSeq="126">
      <ItemData ItemOID="IT.EC.STUDYID" Value="CDISCPILOT01"/>
      <ItemData ItemOID="IT.EC.DOMAIN" Value="EC"/>
      <ItemData ItemOID="IT.EC.USUBJID" Value="CDISC003"/>
      <ItemData ItemOID="IT.EC.SPDEVID" Value="DEV0003"/>
      <ItemData ItemOID="IT.EC.ECSEQ" Value="12"/>
      <ItemData ItemOID="IT.EC.ECTRT" Value="ZANOMALINE"/>
      <ItemData ItemOID="IT.EC.ECPRESP" Value="Y"/>
      <ItemData ItemOID="IT.EC.ECOCCUR" Value="Y"/>
      <ItemData ItemOID="IT.EC.ECDOSE" Value="5"/>
      <ItemData ItemOID="IT.EC.ECDOSU" Value="mL"/>
      <ItemData ItemOID="IT.EC.ECDOSFRM" Value="INJECTION"/>
      <ItemData ItemOID="IT.EC.ECDOSFRQ" Value="QD"/>
      <ItemData ItemOID="IT.EC.ECROUTE" Value="SUBCUTANEOUS"/>
      <ItemData ItemOID="IT.EC.ECLOT" Value="SDS580-359"/>
      <ItemData ItemOID="IT.EC.ECPSTRG" Value="10.8"/>
      <ItemData ItemOID="IT.EC.ECPSTRGU" Value="g/L"/>
      <ItemData ItemOID="IT.EC.EPOCH" Value="TREATMENT"/>
      <ItemData ItemOID="IT.EC.ECSTDTC" Value="2013-09-09"/>
      <ItemData ItemOID="IT.EC.ECENDTC" Value="2013-09-09"/>
      <ItemData ItemOID="IT.EC.ECSTDY" Value="12"/>
      <ItemData ItemOID="IT.EC.ECENDY" Value="12"/>
    </ItemGroupData>
    <ItemGroupData ItemGroupOID="IG.EC" data:ItemGroupDataSeq="127">
      <ItemData ItemOID="IT.EC.STUDYID" Value="CDISCPILOT01"/>
      <ItemData ItemOID="IT.EC.DOMAIN" Value="EC"/>
      <ItemData ItemOID="IT.EC.USUBJID" Value="CDISC003"/>
      <ItemData ItemOID="IT.EC.SPDEVID" Value="DEV0003"/>
      <ItemData ItemOID="IT.EC.ECSEQ" Value="13"/>
      <ItemData ItemOID="IT.EC.ECTRT" Value="ZANOMALINE"/>
      <ItemData ItemOID="IT.EC.ECPRESP" Value="Y"/>
      <ItemData ItemOID="IT.EC.ECOCCUR" Value="Y"/>
      <ItemData ItemOID="IT.EC.ECDOSE" Value="5"/>
      <ItemData ItemOID="IT.EC.ECDOSU" Value="mL"/>
      <ItemData ItemOID="IT.EC.ECDOSFRM" Value="INJECTION"/>
      <ItemData ItemOID="IT.EC.ECDOSFRQ" Value="QD"/>
      <ItemData ItemOID="IT.EC.ECROUTE" Value="SUBCUTANEOUS"/>
      <ItemData ItemOID="IT.EC.ECLOT" Value="SDS580-359"/>
      <ItemData ItemOID="IT.EC.ECPSTRG" Value="10.8"/>
      <ItemData ItemOID="IT.EC.ECPSTRGU" Value="g/L"/>
      <ItemData ItemOID="IT.EC.EPOCH" Value="TREATMENT"/>
      <ItemData ItemOID="IT.EC.ECSTDTC" Value="2013-09-10"/>
      <ItemData ItemOID="IT.EC.ECENDTC" Value="2013-09-10"/>
      <ItemData ItemOID="IT.EC.ECSTDY" Value="13"/>
      <ItemData ItemOID="IT.EC.ECENDY" Value="13"/>
    </ItemGroupData>
    <ItemGroupData ItemGroupOID="IG.EC" data:ItemGroupDataSeq="128">
      <ItemData ItemOID="IT.EC.STUDYID" Value="CDISCPILOT01"/>
      <ItemData ItemOID="IT.EC.DOMAIN" Value="EC"/>
      <ItemData ItemOID="IT.EC.USUBJID" Value="CDISC003"/>
      <ItemData ItemOID="IT.EC.SPDEVID" Value="DEV0003"/>
      <ItemData ItemOID="IT.EC.ECSEQ" Value="14"/>
      <ItemData ItemOID="IT.EC.ECTRT" Value="ZANOMALINE"/>
      <ItemData ItemOID="IT.EC.ECPRESP" Value="Y"/>
      <ItemData ItemOID="IT.EC.ECOCCUR" Value="Y"/>
      <ItemData ItemOID="IT.EC.ECDOSE" Value="5"/>
      <ItemData ItemOID="IT.EC.ECDOSU" Value="mL"/>
      <ItemData ItemOID="IT.EC.ECDOSFRM" Value="INJECTION"/>
      <ItemData ItemOID="IT.EC.ECDOSFRQ" Value="QD"/>
      <ItemData ItemOID="IT.EC.ECROUTE" Value="SUBCUTANEOUS"/>
      <ItemData ItemOID="IT.EC.ECLOT" Value="SDS580-359"/>
      <ItemData ItemOID="IT.EC.ECPSTRG" Value="10.8"/>
      <ItemData ItemOID="IT.EC.ECPSTRGU" Value="g/L"/>
      <ItemData ItemOID="IT.EC.EPOCH" Value="TREATMENT"/>
      <ItemData ItemOID="IT.EC.ECSTDTC" Value="2013-09-11"/>
      <ItemData ItemOID="IT.EC.ECENDTC" Value="2013-09-11"/>
      <ItemData ItemOID="IT.EC.ECSTDY" Value="14"/>
      <ItemData ItemOID="IT.EC.ECENDY" Value="14"/>
    </ItemGroupData>
    <ItemGroupData ItemGroupOID="IG.EC" data:ItemGroupDataSeq="129">
      <ItemData ItemOID="IT.EC.STUDYID" Value="CDISCPILOT01"/>
      <ItemData ItemOID="IT.EC.DOMAIN" Value="EC"/>
      <ItemData ItemOID="IT.EC.USUBJID" Value="CDISC003"/>
      <ItemData ItemOID="IT.EC.SPDEVID" Value="DEV0003"/>
      <ItemData ItemOID="IT.EC.ECSEQ" Value="15"/>
      <ItemData ItemOID="IT.EC.ECTRT" Value="ZANOMALINE"/>
      <ItemData ItemOID="IT.EC.ECPRESP" Value="Y"/>
      <ItemData ItemOID="IT.EC.ECOCCUR" Value="Y"/>
      <ItemData ItemOID="IT.EC.ECDOSE" Value="5"/>
      <ItemData ItemOID="IT.EC.ECDOSU" Value="mL"/>
      <ItemData ItemOID="IT.EC.ECDOSFRM" Value="INJECTION"/>
      <ItemData ItemOID="IT.EC.ECDOSFRQ" Value="QD"/>
      <ItemData ItemOID="IT.EC.ECROUTE" Value="SUBCUTANEOUS"/>
      <ItemData ItemOID="IT.EC.ECLOT" Value="SDS580-359"/>
      <ItemData ItemOID="IT.EC.ECPSTRG" Value="10.8"/>
      <ItemData ItemOID="IT.EC.ECPSTRGU" Value="g/L"/>
      <ItemData ItemOID="IT.EC.EPOCH" Value="TREATMENT"/>
      <ItemData ItemOID="IT.EC.ECSTDTC" Value="2013-09-12"/>
      <ItemData ItemOID="IT.EC.ECENDTC" Value="2013-09-12"/>
      <ItemData ItemOID="IT.EC.ECSTDY" Value="15"/>
      <ItemData ItemOID="IT.EC.ECENDY" Value="15"/>
    </ItemGroupData>
    <ItemGroupData ItemGroupOID="IG.EC" data:ItemGroupDataSeq="130">
      <ItemData ItemOID="IT.EC.STUDYID" Value="CDISCPILOT01"/>
      <ItemData ItemOID="IT.EC.DOMAIN" Value="EC"/>
      <ItemData ItemOID="IT.EC.USUBJID" Value="CDISC003"/>
      <ItemData ItemOID="IT.EC.SPDEVID" Value="DEV0003"/>
      <ItemData ItemOID="IT.EC.ECSEQ" Value="16"/>
      <ItemData ItemOID="IT.EC.ECTRT" Value="ZANOMALINE"/>
      <ItemData ItemOID="IT.EC.ECPRESP" Value="Y"/>
      <ItemData ItemOID="IT.EC.ECOCCUR" Value="Y"/>
      <ItemData ItemOID="IT.EC.ECDOSE" Value="5"/>
      <ItemData ItemOID="IT.EC.ECDOSU" Value="mL"/>
      <ItemData ItemOID="IT.EC.ECDOSFRM" Value="INJECTION"/>
      <ItemData ItemOID="IT.EC.ECDOSFRQ" Value="QD"/>
      <ItemData ItemOID="IT.EC.ECROUTE" Value="SUBCUTANEOUS"/>
      <ItemData ItemOID="IT.EC.ECLOT" Value="SDS580-359"/>
      <ItemData ItemOID="IT.EC.ECPSTRG" Value="10.8"/>
      <ItemData ItemOID="IT.EC.ECPSTRGU" Value="g/L"/>
      <ItemData ItemOID="IT.EC.EPOCH" Value="TREATMENT"/>
      <ItemData ItemOID="IT.EC.ECSTDTC" Value="2013-09-13"/>
      <ItemData ItemOID="IT.EC.ECENDTC" Value="2013-09-13"/>
      <ItemData ItemOID="IT.EC.ECSTDY" Value="16"/>
      <ItemData ItemOID="IT.EC.ECENDY" Value="16"/>
    </ItemGroupData>
    <ItemGroupData ItemGroupOID="IG.EC" data:ItemGroupDataSeq="131">
      <ItemData ItemOID="IT.EC.STUDYID" Value="CDISCPILOT01"/>
      <ItemData ItemOID="IT.EC.DOMAIN" Value="EC"/>
      <ItemData ItemOID="IT.EC.USUBJID" Value="CDISC003"/>
      <ItemData ItemOID="IT.EC.SPDEVID" Value="DEV0003"/>
      <ItemData ItemOID="IT.EC.ECSEQ" Value="17"/>
      <ItemData ItemOID="IT.EC.ECTRT" Value="ZANOMALINE"/>
      <ItemData ItemOID="IT.EC.ECPRESP" Value="Y"/>
      <ItemData ItemOID="IT.EC.ECOCCUR" Value="Y"/>
      <ItemData ItemOID="IT.EC.ECDOSE" Value="5"/>
      <ItemData ItemOID="IT.EC.ECDOSU" Value="mL"/>
      <ItemData ItemOID="IT.EC.ECDOSFRM" Value="INJECTION"/>
      <ItemData ItemOID="IT.EC.ECDOSFRQ" Value="QD"/>
      <ItemData ItemOID="IT.EC.ECROUTE" Value="SUBCUTANEOUS"/>
      <ItemData ItemOID="IT.EC.ECLOT" Value="SDS580-359"/>
      <ItemData ItemOID="IT.EC.ECPSTRG" Value="10.8"/>
      <ItemData ItemOID="IT.EC.ECPSTRGU" Value="g/L"/>
      <ItemData ItemOID="IT.EC.EPOCH" Value="TREATMENT"/>
      <ItemData ItemOID="IT.EC.ECSTDTC" Value="2013-09-14"/>
      <ItemData ItemOID="IT.EC.ECENDTC" Value="2013-09-14"/>
      <ItemData ItemOID="IT.EC.ECSTDY" Value="17"/>
      <ItemData ItemOID="IT.EC.ECENDY" Value="17"/>
    </ItemGroupData>
    <ItemGroupData ItemGroupOID="IG.EC" data:ItemGroupDataSeq="132">
      <ItemData ItemOID="IT.EC.STUDYID" Value="CDISCPILOT01"/>
      <ItemData ItemOID="IT.EC.DOMAIN" Value="EC"/>
      <ItemData ItemOID="IT.EC.USUBJID" Value="CDISC003"/>
      <ItemData ItemOID="IT.EC.SPDEVID" Value="DEV0003"/>
      <ItemData ItemOID="IT.EC.ECSEQ" Value="18"/>
      <ItemData ItemOID="IT.EC.ECTRT" Value="ZANOMALINE"/>
      <ItemData ItemOID="IT.EC.ECPRESP" Value="Y"/>
      <ItemData ItemOID="IT.EC.ECOCCUR" Value="Y"/>
      <ItemData ItemOID="IT.EC.ECDOSE" Value="5"/>
      <ItemData ItemOID="IT.EC.ECDOSU" Value="mL"/>
      <ItemData ItemOID="IT.EC.ECDOSFRM" Value="INJECTION"/>
      <ItemData ItemOID="IT.EC.ECDOSFRQ" Value="QD"/>
      <ItemData ItemOID="IT.EC.ECROUTE" Value="SUBCUTANEOUS"/>
      <ItemData ItemOID="IT.EC.ECLOT" Value="SDS580-359"/>
      <ItemData ItemOID="IT.EC.ECPSTRG" Value="10.8"/>
      <ItemData ItemOID="IT.EC.ECPSTRGU" Value="g/L"/>
      <ItemData ItemOID="IT.EC.EPOCH" Value="TREATMENT"/>
      <ItemData ItemOID="IT.EC.ECSTDTC" Value="2013-09-15"/>
      <ItemData ItemOID="IT.EC.ECENDTC" Value="2013-09-15"/>
      <ItemData ItemOID="IT.EC.ECSTDY" Value="18"/>
      <ItemData ItemOID="IT.EC.ECENDY" Value="18"/>
    </ItemGroupData>
    <ItemGroupData ItemGroupOID="IG.EC" data:ItemGroupDataSeq="133">
      <ItemData ItemOID="IT.EC.STUDYID" Value="CDISCPILOT01"/>
      <ItemData ItemOID="IT.EC.DOMAIN" Value="EC"/>
      <ItemData ItemOID="IT.EC.USUBJID" Value="CDISC003"/>
      <ItemData ItemOID="IT.EC.SPDEVID" Value="DEV0003"/>
      <ItemData ItemOID="IT.EC.ECSEQ" Value="19"/>
      <ItemData ItemOID="IT.EC.ECTRT" Value="ZANOMALINE"/>
      <ItemData ItemOID="IT.EC.ECPRESP" Value="Y"/>
      <ItemData ItemOID="IT.EC.ECOCCUR" Value="Y"/>
      <ItemData ItemOID="IT.EC.ECDOSE" Value="5"/>
      <ItemData ItemOID="IT.EC.ECDOSU" Value="mL"/>
      <ItemData ItemOID="IT.EC.ECDOSFRM" Value="INJECTION"/>
      <ItemData ItemOID="IT.EC.ECDOSFRQ" Value="QD"/>
      <ItemData ItemOID="IT.EC.ECROUTE" Value="SUBCUTANEOUS"/>
      <ItemData ItemOID="IT.EC.ECLOT" Value="SDS580-359"/>
      <ItemData ItemOID="IT.EC.ECPSTRG" Value="16.2"/>
      <ItemData ItemOID="IT.EC.ECPSTRGU" Value="g/L"/>
      <ItemData ItemOID="IT.EC.EPOCH" Value="TREATMENT"/>
      <ItemData ItemOID="IT.EC.ECSTDTC" Value="2013-09-16"/>
      <ItemData ItemOID="IT.EC.ECENDTC" Value="2013-09-16"/>
      <ItemData ItemOID="IT.EC.ECSTDY" Value="19"/>
      <ItemData ItemOID="IT.EC.ECENDY" Value="19"/>
    </ItemGroupData>
    <ItemGroupData ItemGroupOID="IG.EC" data:ItemGroupDataSeq="134">
      <ItemData ItemOID="IT.EC.STUDYID" Value="CDISCPILOT01"/>
      <ItemData ItemOID="IT.EC.DOMAIN" Value="EC"/>
      <ItemData ItemOID="IT.EC.USUBJID" Value="CDISC003"/>
      <ItemData ItemOID="IT.EC.SPDEVID" Value="DEV0003"/>
      <ItemData ItemOID="IT.EC.ECSEQ" Value="20"/>
      <ItemData ItemOID="IT.EC.ECTRT" Value="ZANOMALINE"/>
      <ItemData ItemOID="IT.EC.ECPRESP" Value="Y"/>
      <ItemData ItemOID="IT.EC.ECOCCUR" Value="Y"/>
      <ItemData ItemOID="IT.EC.ECDOSE" Value="5"/>
      <ItemData ItemOID="IT.EC.ECDOSU" Value="mL"/>
      <ItemData ItemOID="IT.EC.ECDOSFRM" Value="INJECTION"/>
      <ItemData ItemOID="IT.EC.ECDOSFRQ" Value="QD"/>
      <ItemData ItemOID="IT.EC.ECROUTE" Value="SUBCUTANEOUS"/>
      <ItemData ItemOID="IT.EC.ECLOT" Value="SDS580-359"/>
      <ItemData ItemOID="IT.EC.ECPSTRG" Value="16.2"/>
      <ItemData ItemOID="IT.EC.ECPSTRGU" Value="g/L"/>
      <ItemData ItemOID="IT.EC.EPOCH" Value="TREATMENT"/>
      <ItemData ItemOID="IT.EC.ECSTDTC" Value="2013-09-17"/>
      <ItemData ItemOID="IT.EC.ECENDTC" Value="2013-09-17"/>
      <ItemData ItemOID="IT.EC.ECSTDY" Value="20"/>
      <ItemData ItemOID="IT.EC.ECENDY" Value="20"/>
    </ItemGroupData>
    <ItemGroupData ItemGroupOID="IG.EC" data:ItemGroupDataSeq="135">
      <ItemData ItemOID="IT.EC.STUDYID" Value="CDISCPILOT01"/>
      <ItemData ItemOID="IT.EC.DOMAIN" Value="EC"/>
      <ItemData ItemOID="IT.EC.USUBJID" Value="CDISC003"/>
      <ItemData ItemOID="IT.EC.SPDEVID" Value="DEV0003"/>
      <ItemData ItemOID="IT.EC.ECSEQ" Value="21"/>
      <ItemData ItemOID="IT.EC.ECTRT" Value="ZANOMALINE"/>
      <ItemData ItemOID="IT.EC.ECPRESP" Value="Y"/>
      <ItemData ItemOID="IT.EC.ECOCCUR" Value="Y"/>
      <ItemData ItemOID="IT.EC.ECDOSE" Value="5"/>
      <ItemData ItemOID="IT.EC.ECDOSU" Value="mL"/>
      <ItemData ItemOID="IT.EC.ECDOSFRM" Value="INJECTION"/>
      <ItemData ItemOID="IT.EC.ECDOSFRQ" Value="QD"/>
      <ItemData ItemOID="IT.EC.ECROUTE" Value="SUBCUTANEOUS"/>
      <ItemData ItemOID="IT.EC.ECLOT" Value="SDS580-359"/>
      <ItemData ItemOID="IT.EC.ECPSTRG" Value="16.2"/>
      <ItemData ItemOID="IT.EC.ECPSTRGU" Value="g/L"/>
      <ItemData ItemOID="IT.EC.EPOCH" Value="TREATMENT"/>
      <ItemData ItemOID="IT.EC.ECSTDTC" Value="2013-09-18"/>
      <ItemData ItemOID="IT.EC.ECENDTC" Value="2013-09-18"/>
      <ItemData ItemOID="IT.EC.ECSTDY" Value="21"/>
      <ItemData ItemOID="IT.EC.ECENDY" Value="21"/>
    </ItemGroupData>
    <ItemGroupData ItemGroupOID="IG.EC" data:ItemGroupDataSeq="136">
      <ItemData ItemOID="IT.EC.STUDYID" Value="CDISCPILOT01"/>
      <ItemData ItemOID="IT.EC.DOMAIN" Value="EC"/>
      <ItemData ItemOID="IT.EC.USUBJID" Value="CDISC003"/>
      <ItemData ItemOID="IT.EC.SPDEVID" Value="DEV0003"/>
      <ItemData ItemOID="IT.EC.ECSEQ" Value="22"/>
      <ItemData ItemOID="IT.EC.ECTRT" Value="ZANOMALINE"/>
      <ItemData ItemOID="IT.EC.ECPRESP" Value="Y"/>
      <ItemData ItemOID="IT.EC.ECOCCUR" Value="Y"/>
      <ItemData ItemOID="IT.EC.ECDOSE" Value="5"/>
      <ItemData ItemOID="IT.EC.ECDOSU" Value="mL"/>
      <ItemData ItemOID="IT.EC.ECDOSFRM" Value="INJECTION"/>
      <ItemData ItemOID="IT.EC.ECDOSFRQ" Value="QD"/>
      <ItemData ItemOID="IT.EC.ECROUTE" Value="SUBCUTANEOUS"/>
      <ItemData ItemOID="IT.EC.ECLOT" Value="SDS580-359"/>
      <ItemData ItemOID="IT.EC.ECPSTRG" Value="16.2"/>
      <ItemData ItemOID="IT.EC.ECPSTRGU" Value="g/L"/>
      <ItemData ItemOID="IT.EC.EPOCH" Value="TREATMENT"/>
      <ItemData ItemOID="IT.EC.ECSTDTC" Value="2013-09-19"/>
      <ItemData ItemOID="IT.EC.ECENDTC" Value="2013-09-19"/>
      <ItemData ItemOID="IT.EC.ECSTDY" Value="22"/>
      <ItemData ItemOID="IT.EC.ECENDY" Value="22"/>
    </ItemGroupData>
    <ItemGroupData ItemGroupOID="IG.EC" data:ItemGroupDataSeq="137">
      <ItemData ItemOID="IT.EC.STUDYID" Value="CDISCPILOT01"/>
      <ItemData ItemOID="IT.EC.DOMAIN" Value="EC"/>
      <ItemData ItemOID="IT.EC.USUBJID" Value="CDISC003"/>
      <ItemData ItemOID="IT.EC.SPDEVID" Value="DEV0003"/>
      <ItemData ItemOID="IT.EC.ECSEQ" Value="23"/>
      <ItemData ItemOID="IT.EC.ECTRT" Value="ZANOMALINE"/>
      <ItemData ItemOID="IT.EC.ECPRESP" Value="Y"/>
      <ItemData ItemOID="IT.EC.ECOCCUR" Value="Y"/>
      <ItemData ItemOID="IT.EC.ECDOSE" Value="5"/>
      <ItemData ItemOID="IT.EC.ECDOSU" Value="mL"/>
      <ItemData ItemOID="IT.EC.ECDOSFRM" Value="INJECTION"/>
      <ItemData ItemOID="IT.EC.ECDOSFRQ" Value="QD"/>
      <ItemData ItemOID="IT.EC.ECROUTE" Value="SUBCUTANEOUS"/>
      <ItemData ItemOID="IT.EC.ECLOT" Value="SDS580-359"/>
      <ItemData ItemOID="IT.EC.ECPSTRG" Value="16.2"/>
      <ItemData ItemOID="IT.EC.ECPSTRGU" Value="g/L"/>
      <ItemData ItemOID="IT.EC.EPOCH" Value="TREATMENT"/>
      <ItemData ItemOID="IT.EC.ECSTDTC" Value="2013-09-20"/>
      <ItemData ItemOID="IT.EC.ECENDTC" Value="2013-09-20"/>
      <ItemData ItemOID="IT.EC.ECSTDY" Value="23"/>
      <ItemData ItemOID="IT.EC.ECENDY" Value="23"/>
    </ItemGroupData>
    <ItemGroupData ItemGroupOID="IG.EC" data:ItemGroupDataSeq="138">
      <ItemData ItemOID="IT.EC.STUDYID" Value="CDISCPILOT01"/>
      <ItemData ItemOID="IT.EC.DOMAIN" Value="EC"/>
      <ItemData ItemOID="IT.EC.USUBJID" Value="CDISC003"/>
      <ItemData ItemOID="IT.EC.SPDEVID" Value="DEV0003"/>
      <ItemData ItemOID="IT.EC.ECSEQ" Value="24"/>
      <ItemData ItemOID="IT.EC.ECTRT" Value="ZANOMALINE"/>
      <ItemData ItemOID="IT.EC.ECPRESP" Value="Y"/>
      <ItemData ItemOID="IT.EC.ECOCCUR" Value="Y"/>
      <ItemData ItemOID="IT.EC.ECDOSE" Value="5"/>
      <ItemData ItemOID="IT.EC.ECDOSU" Value="mL"/>
      <ItemData ItemOID="IT.EC.ECDOSFRM" Value="INJECTION"/>
      <ItemData ItemOID="IT.EC.ECDOSFRQ" Value="QD"/>
      <ItemData ItemOID="IT.EC.ECROUTE" Value="SUBCUTANEOUS"/>
      <ItemData ItemOID="IT.EC.ECLOT" Value="SDS580-359"/>
      <ItemData ItemOID="IT.EC.ECPSTRG" Value="16.2"/>
      <ItemData ItemOID="IT.EC.ECPSTRGU" Value="g/L"/>
      <ItemData ItemOID="IT.EC.EPOCH" Value="TREATMENT"/>
      <ItemData ItemOID="IT.EC.ECSTDTC" Value="2013-09-21"/>
      <ItemData ItemOID="IT.EC.ECENDTC" Value="2013-09-21"/>
      <ItemData ItemOID="IT.EC.ECSTDY" Value="24"/>
      <ItemData ItemOID="IT.EC.ECENDY" Value="24"/>
    </ItemGroupData>
    <ItemGroupData ItemGroupOID="IG.EC" data:ItemGroupDataSeq="139">
      <ItemData ItemOID="IT.EC.STUDYID" Value="CDISCPILOT01"/>
      <ItemData ItemOID="IT.EC.DOMAIN" Value="EC"/>
      <ItemData ItemOID="IT.EC.USUBJID" Value="CDISC003"/>
      <ItemData ItemOID="IT.EC.SPDEVID" Value="DEV0003"/>
      <ItemData ItemOID="IT.EC.ECSEQ" Value="25"/>
      <ItemData ItemOID="IT.EC.ECTRT" Value="ZANOMALINE"/>
      <ItemData ItemOID="IT.EC.ECPRESP" Value="Y"/>
      <ItemData ItemOID="IT.EC.ECOCCUR" Value="Y"/>
      <ItemData ItemOID="IT.EC.ECDOSE" Value="5"/>
      <ItemData ItemOID="IT.EC.ECDOSU" Value="mL"/>
      <ItemData ItemOID="IT.EC.ECDOSFRM" Value="INJECTION"/>
      <ItemData ItemOID="IT.EC.ECDOSFRQ" Value="QD"/>
      <ItemData ItemOID="IT.EC.ECROUTE" Value="SUBCUTANEOUS"/>
      <ItemData ItemOID="IT.EC.ECLOT" Value="SDS580-359"/>
      <ItemData ItemOID="IT.EC.ECPSTRG" Value="16.2"/>
      <ItemData ItemOID="IT.EC.ECPSTRGU" Value="g/L"/>
      <ItemData ItemOID="IT.EC.EPOCH" Value="TREATMENT"/>
      <ItemData ItemOID="IT.EC.ECSTDTC" Value="2013-09-22"/>
      <ItemData ItemOID="IT.EC.ECENDTC" Value="2013-09-22"/>
      <ItemData ItemOID="IT.EC.ECSTDY" Value="25"/>
      <ItemData ItemOID="IT.EC.ECENDY" Value="25"/>
    </ItemGroupData>
    <ItemGroupData ItemGroupOID="IG.EC" data:ItemGroupDataSeq="140">
      <ItemData ItemOID="IT.EC.STUDYID" Value="CDISCPILOT01"/>
      <ItemData ItemOID="IT.EC.DOMAIN" Value="EC"/>
      <ItemData ItemOID="IT.EC.USUBJID" Value="CDISC003"/>
      <ItemData ItemOID="IT.EC.SPDEVID" Value="DEV0003"/>
      <ItemData ItemOID="IT.EC.ECSEQ" Value="26"/>
      <ItemData ItemOID="IT.EC.ECTRT" Value="ZANOMALINE"/>
      <ItemData ItemOID="IT.EC.ECPRESP" Value="Y"/>
      <ItemData ItemOID="IT.EC.ECOCCUR" Value="Y"/>
      <ItemData ItemOID="IT.EC.ECDOSE" Value="5"/>
      <ItemData ItemOID="IT.EC.ECDOSU" Value="mL"/>
      <ItemData ItemOID="IT.EC.ECDOSFRM" Value="INJECTION"/>
      <ItemData ItemOID="IT.EC.ECDOSFRQ" Value="QD"/>
      <ItemData ItemOID="IT.EC.ECROUTE" Value="SUBCUTANEOUS"/>
      <ItemData ItemOID="IT.EC.ECLOT" Value="SDS580-359"/>
      <ItemData ItemOID="IT.EC.ECPSTRG" Value="16.2"/>
      <ItemData ItemOID="IT.EC.ECPSTRGU" Value="g/L"/>
      <ItemData ItemOID="IT.EC.EPOCH" Value="TREATMENT"/>
      <ItemData ItemOID="IT.EC.ECSTDTC" Value="2013-09-23"/>
      <ItemData ItemOID="IT.EC.ECENDTC" Value="2013-09-23"/>
      <ItemData ItemOID="IT.EC.ECSTDY" Value="26"/>
      <ItemData ItemOID="IT.EC.ECENDY" Value="26"/>
    </ItemGroupData>
    <ItemGroupData ItemGroupOID="IG.EC" data:ItemGroupDataSeq="141">
      <ItemData ItemOID="IT.EC.STUDYID" Value="CDISCPILOT01"/>
      <ItemData ItemOID="IT.EC.DOMAIN" Value="EC"/>
      <ItemData ItemOID="IT.EC.USUBJID" Value="CDISC003"/>
      <ItemData ItemOID="IT.EC.SPDEVID" Value="DEV0003"/>
      <ItemData ItemOID="IT.EC.ECSEQ" Value="27"/>
      <ItemData ItemOID="IT.EC.ECTRT" Value="ZANOMALINE"/>
      <ItemData ItemOID="IT.EC.ECPRESP" Value="Y"/>
      <ItemData ItemOID="IT.EC.ECOCCUR" Value="Y"/>
      <ItemData ItemOID="IT.EC.ECDOSE" Value="5"/>
      <ItemData ItemOID="IT.EC.ECDOSU" Value="mL"/>
      <ItemData ItemOID="IT.EC.ECDOSFRM" Value="INJECTION"/>
      <ItemData ItemOID="IT.EC.ECDOSFRQ" Value="QD"/>
      <ItemData ItemOID="IT.EC.ECROUTE" Value="SUBCUTANEOUS"/>
      <ItemData ItemOID="IT.EC.ECLOT" Value="SDS580-359"/>
      <ItemData ItemOID="IT.EC.ECPSTRG" Value="16.2"/>
      <ItemData ItemOID="IT.EC.ECPSTRGU" Value="g/L"/>
      <ItemData ItemOID="IT.EC.EPOCH" Value="TREATMENT"/>
      <ItemData ItemOID="IT.EC.ECSTDTC" Value="2013-09-24"/>
      <ItemData ItemOID="IT.EC.ECENDTC" Value="2013-09-24"/>
      <ItemData ItemOID="IT.EC.ECSTDY" Value="27"/>
      <ItemData ItemOID="IT.EC.ECENDY" Value="27"/>
    </ItemGroupData>
    <ItemGroupData ItemGroupOID="IG.EC" data:ItemGroupDataSeq="142">
      <ItemData ItemOID="IT.EC.STUDYID" Value="CDISCPILOT01"/>
      <ItemData ItemOID="IT.EC.DOMAIN" Value="EC"/>
      <ItemData ItemOID="IT.EC.USUBJID" Value="CDISC003"/>
      <ItemData ItemOID="IT.EC.SPDEVID" Value="DEV0003"/>
      <ItemData ItemOID="IT.EC.ECSEQ" Value="28"/>
      <ItemData ItemOID="IT.EC.ECTRT" Value="ZANOMALINE"/>
      <ItemData ItemOID="IT.EC.ECPRESP" Value="Y"/>
      <ItemData ItemOID="IT.EC.ECOCCUR" Value="Y"/>
      <ItemData ItemOID="IT.EC.ECDOSE" Value="5"/>
      <ItemData ItemOID="IT.EC.ECDOSU" Value="mL"/>
      <ItemData ItemOID="IT.EC.ECDOSFRM" Value="INJECTION"/>
      <ItemData ItemOID="IT.EC.ECDOSFRQ" Value="QD"/>
      <ItemData ItemOID="IT.EC.ECROUTE" Value="SUBCUTANEOUS"/>
      <ItemData ItemOID="IT.EC.ECLOT" Value="SDS580-359"/>
      <ItemData ItemOID="IT.EC.ECPSTRG" Value="16.2"/>
      <ItemData ItemOID="IT.EC.ECPSTRGU" Value="g/L"/>
      <ItemData ItemOID="IT.EC.EPOCH" Value="TREATMENT"/>
      <ItemData ItemOID="IT.EC.ECSTDTC" Value="2013-09-25"/>
      <ItemData ItemOID="IT.EC.ECENDTC" Value="2013-09-25"/>
      <ItemData ItemOID="IT.EC.ECSTDY" Value="28"/>
      <ItemData ItemOID="IT.EC.ECENDY" Value="28"/>
    </ItemGroupData>
    <ItemGroupData ItemGroupOID="IG.EC" data:ItemGroupDataSeq="143">
      <ItemData ItemOID="IT.EC.STUDYID" Value="CDISCPILOT01"/>
      <ItemData ItemOID="IT.EC.DOMAIN" Value="EC"/>
      <ItemData ItemOID="IT.EC.USUBJID" Value="CDISC003"/>
      <ItemData ItemOID="IT.EC.SPDEVID" Value="DEV0003"/>
      <ItemData ItemOID="IT.EC.ECSEQ" Value="29"/>
      <ItemData ItemOID="IT.EC.ECTRT" Value="ZANOMALINE"/>
      <ItemData ItemOID="IT.EC.ECPRESP" Value="Y"/>
      <ItemData ItemOID="IT.EC.ECOCCUR" Value="Y"/>
      <ItemData ItemOID="IT.EC.ECDOSE" Value="5"/>
      <ItemData ItemOID="IT.EC.ECDOSU" Value="mL"/>
      <ItemData ItemOID="IT.EC.ECDOSFRM" Value="INJECTION"/>
      <ItemData ItemOID="IT.EC.ECDOSFRQ" Value="QD"/>
      <ItemData ItemOID="IT.EC.ECROUTE" Value="SUBCUTANEOUS"/>
      <ItemData ItemOID="IT.EC.ECLOT" Value="SDS580-359"/>
      <ItemData ItemOID="IT.EC.ECPSTRG" Value="16.2"/>
      <ItemData ItemOID="IT.EC.ECPSTRGU" Value="g/L"/>
      <ItemData ItemOID="IT.EC.EPOCH" Value="TREATMENT"/>
      <ItemData ItemOID="IT.EC.ECSTDTC" Value="2013-09-26"/>
      <ItemData ItemOID="IT.EC.ECENDTC" Value="2013-09-26"/>
      <ItemData ItemOID="IT.EC.ECSTDY" Value="29"/>
      <ItemData ItemOID="IT.EC.ECENDY" Value="29"/>
    </ItemGroupData>
    <ItemGroupData ItemGroupOID="IG.EC" data:ItemGroupDataSeq="144">
      <ItemData ItemOID="IT.EC.STUDYID" Value="CDISCPILOT01"/>
      <ItemData ItemOID="IT.EC.DOMAIN" Value="EC"/>
      <ItemData ItemOID="IT.EC.USUBJID" Value="CDISC003"/>
      <ItemData ItemOID="IT.EC.SPDEVID" Value="DEV0003"/>
      <ItemData ItemOID="IT.EC.ECSEQ" Value="30"/>
      <ItemData ItemOID="IT.EC.ECTRT" Value="ZANOMALINE"/>
      <ItemData ItemOID="IT.EC.ECPRESP" Value="Y"/>
      <ItemData ItemOID="IT.EC.ECOCCUR" Value="Y"/>
      <ItemData ItemOID="IT.EC.ECDOSE" Value="5"/>
      <ItemData ItemOID="IT.EC.ECDOSU" Value="mL"/>
      <ItemData ItemOID="IT.EC.ECDOSFRM" Value="INJECTION"/>
      <ItemData ItemOID="IT.EC.ECDOSFRQ" Value="QD"/>
      <ItemData ItemOID="IT.EC.ECROUTE" Value="SUBCUTANEOUS"/>
      <ItemData ItemOID="IT.EC.ECLOT" Value="SDS580-359"/>
      <ItemData ItemOID="IT.EC.ECPSTRG" Value="16.2"/>
      <ItemData ItemOID="IT.EC.ECPSTRGU" Value="g/L"/>
      <ItemData ItemOID="IT.EC.EPOCH" Value="TREATMENT"/>
      <ItemData ItemOID="IT.EC.ECSTDTC" Value="2013-09-27"/>
      <ItemData ItemOID="IT.EC.ECENDTC" Value="2013-09-27"/>
      <ItemData ItemOID="IT.EC.ECSTDY" Value="30"/>
      <ItemData ItemOID="IT.EC.ECENDY" Value="30"/>
    </ItemGroupData>
    <ItemGroupData ItemGroupOID="IG.EC" data:ItemGroupDataSeq="145">
      <ItemData ItemOID="IT.EC.STUDYID" Value="CDISCPILOT01"/>
      <ItemData ItemOID="IT.EC.DOMAIN" Value="EC"/>
      <ItemData ItemOID="IT.EC.USUBJID" Value="CDISC003"/>
      <ItemData ItemOID="IT.EC.SPDEVID" Value="DEV0003"/>
      <ItemData ItemOID="IT.EC.ECSEQ" Value="31"/>
      <ItemData ItemOID="IT.EC.ECTRT" Value="ZANOMALINE"/>
      <ItemData ItemOID="IT.EC.ECPRESP" Value="Y"/>
      <ItemData ItemOID="IT.EC.ECOCCUR" Value="Y"/>
      <ItemData ItemOID="IT.EC.ECDOSE" Value="5"/>
      <ItemData ItemOID="IT.EC.ECDOSU" Value="mL"/>
      <ItemData ItemOID="IT.EC.ECDOSFRM" Value="INJECTION"/>
      <ItemData ItemOID="IT.EC.ECDOSFRQ" Value="QD"/>
      <ItemData ItemOID="IT.EC.ECROUTE" Value="SUBCUTANEOUS"/>
      <ItemData ItemOID="IT.EC.ECLOT" Value="SDS580-359"/>
      <ItemData ItemOID="IT.EC.ECPSTRG" Value="16.2"/>
      <ItemData ItemOID="IT.EC.ECPSTRGU" Value="g/L"/>
      <ItemData ItemOID="IT.EC.EPOCH" Value="TREATMENT"/>
      <ItemData ItemOID="IT.EC.ECSTDTC" Value="2013-09-28"/>
      <ItemData ItemOID="IT.EC.ECENDTC" Value="2013-09-28"/>
      <ItemData ItemOID="IT.EC.ECSTDY" Value="31"/>
      <ItemData ItemOID="IT.EC.ECENDY" Value="31"/>
    </ItemGroupData>
    <ItemGroupData ItemGroupOID="IG.EC" data:ItemGroupDataSeq="146">
      <ItemData ItemOID="IT.EC.STUDYID" Value="CDISCPILOT01"/>
      <ItemData ItemOID="IT.EC.DOMAIN" Value="EC"/>
      <ItemData ItemOID="IT.EC.USUBJID" Value="CDISC003"/>
      <ItemData ItemOID="IT.EC.SPDEVID" Value="DEV0003"/>
      <ItemData ItemOID="IT.EC.ECSEQ" Value="32"/>
      <ItemData ItemOID="IT.EC.ECTRT" Value="ZANOMALINE"/>
      <ItemData ItemOID="IT.EC.ECPRESP" Value="Y"/>
      <ItemData ItemOID="IT.EC.ECOCCUR" Value="Y"/>
      <ItemData ItemOID="IT.EC.ECDOSE" Value="5"/>
      <ItemData ItemOID="IT.EC.ECDOSU" Value="mL"/>
      <ItemData ItemOID="IT.EC.ECDOSFRM" Value="INJECTION"/>
      <ItemData ItemOID="IT.EC.ECDOSFRQ" Value="QD"/>
      <ItemData ItemOID="IT.EC.ECROUTE" Value="SUBCUTANEOUS"/>
      <ItemData ItemOID="IT.EC.ECLOT" Value="SDS580-359"/>
      <ItemData ItemOID="IT.EC.ECPSTRG" Value="16.2"/>
      <ItemData ItemOID="IT.EC.ECPSTRGU" Value="g/L"/>
      <ItemData ItemOID="IT.EC.EPOCH" Value="TREATMENT"/>
      <ItemData ItemOID="IT.EC.ECSTDTC" Value="2013-09-29"/>
      <ItemData ItemOID="IT.EC.ECENDTC" Value="2013-09-29"/>
      <ItemData ItemOID="IT.EC.ECSTDY" Value="32"/>
      <ItemData ItemOID="IT.EC.ECENDY" Value="32"/>
    </ItemGroupData>
    <ItemGroupData ItemGroupOID="IG.EC" data:ItemGroupDataSeq="147">
      <ItemData ItemOID="IT.EC.STUDYID" Value="CDISCPILOT01"/>
      <ItemData ItemOID="IT.EC.DOMAIN" Value="EC"/>
      <ItemData ItemOID="IT.EC.USUBJID" Value="CDISC003"/>
      <ItemData ItemOID="IT.EC.SPDEVID" Value="DEV0003"/>
      <ItemData ItemOID="IT.EC.ECSEQ" Value="33"/>
      <ItemData ItemOID="IT.EC.ECTRT" Value="ZANOMALINE"/>
      <ItemData ItemOID="IT.EC.ECPRESP" Value="Y"/>
      <ItemData ItemOID="IT.EC.ECOCCUR" Value="Y"/>
      <ItemData ItemOID="IT.EC.ECDOSE" Value="5"/>
      <ItemData ItemOID="IT.EC.ECDOSU" Value="mL"/>
      <ItemData ItemOID="IT.EC.ECDOSFRM" Value="INJECTION"/>
      <ItemData ItemOID="IT.EC.ECDOSFRQ" Value="QD"/>
      <ItemData ItemOID="IT.EC.ECROUTE" Value="SUBCUTANEOUS"/>
      <ItemData ItemOID="IT.EC.ECLOT" Value="SDS580-359"/>
      <ItemData ItemOID="IT.EC.ECPSTRG" Value="16.2"/>
      <ItemData ItemOID="IT.EC.ECPSTRGU" Value="g/L"/>
      <ItemData ItemOID="IT.EC.EPOCH" Value="TREATMENT"/>
      <ItemData ItemOID="IT.EC.ECSTDTC" Value="2013-09-30"/>
      <ItemData ItemOID="IT.EC.ECENDTC" Value="2013-09-30"/>
      <ItemData ItemOID="IT.EC.ECSTDY" Value="33"/>
      <ItemData ItemOID="IT.EC.ECENDY" Value="33"/>
    </ItemGroupData>
    <ItemGroupData ItemGroupOID="IG.EC" data:ItemGroupDataSeq="148">
      <ItemData ItemOID="IT.EC.STUDYID" Value="CDISCPILOT01"/>
      <ItemData ItemOID="IT.EC.DOMAIN" Value="EC"/>
      <ItemData ItemOID="IT.EC.USUBJID" Value="CDISC003"/>
      <ItemData ItemOID="IT.EC.SPDEVID" Value="DEV0003"/>
      <ItemData ItemOID="IT.EC.ECSEQ" Value="34"/>
      <ItemData ItemOID="IT.EC.ECTRT" Value="ZANOMALINE"/>
      <ItemData ItemOID="IT.EC.ECPRESP" Value="Y"/>
      <ItemData ItemOID="IT.EC.ECOCCUR" Value="Y"/>
      <ItemData ItemOID="IT.EC.ECDOSE" Value="5"/>
      <ItemData ItemOID="IT.EC.ECDOSU" Value="mL"/>
      <ItemData ItemOID="IT.EC.ECDOSFRM" Value="INJECTION"/>
      <ItemData ItemOID="IT.EC.ECDOSFRQ" Value="QD"/>
      <ItemData ItemOID="IT.EC.ECROUTE" Value="SUBCUTANEOUS"/>
      <ItemData ItemOID="IT.EC.ECLOT" Value="SDS580-359"/>
      <ItemData ItemOID="IT.EC.ECPSTRG" Value="16.2"/>
      <ItemData ItemOID="IT.EC.ECPSTRGU" Value="g/L"/>
      <ItemData ItemOID="IT.EC.EPOCH" Value="TREATMENT"/>
      <ItemData ItemOID="IT.EC.ECSTDTC" Value="2013-10-01"/>
      <ItemData ItemOID="IT.EC.ECENDTC" Value="2013-10-01"/>
      <ItemData ItemOID="IT.EC.ECSTDY" Value="34"/>
      <ItemData ItemOID="IT.EC.ECENDY" Value="34"/>
    </ItemGroupData>
    <ItemGroupData ItemGroupOID="IG.EC" data:ItemGroupDataSeq="149">
      <ItemData ItemOID="IT.EC.STUDYID" Value="CDISCPILOT01"/>
      <ItemData ItemOID="IT.EC.DOMAIN" Value="EC"/>
      <ItemData ItemOID="IT.EC.USUBJID" Value="CDISC003"/>
      <ItemData ItemOID="IT.EC.SPDEVID" Value="DEV0003"/>
      <ItemData ItemOID="IT.EC.ECSEQ" Value="35"/>
      <ItemData ItemOID="IT.EC.ECTRT" Value="ZANOMALINE"/>
      <ItemData ItemOID="IT.EC.ECPRESP" Value="Y"/>
      <ItemData ItemOID="IT.EC.ECOCCUR" Value="Y"/>
      <ItemData ItemOID="IT.EC.ECDOSE" Value="5"/>
      <ItemData ItemOID="IT.EC.ECDOSU" Value="mL"/>
      <ItemData ItemOID="IT.EC.ECDOSFRM" Value="INJECTION"/>
      <ItemData ItemOID="IT.EC.ECDOSFRQ" Value="QD"/>
      <ItemData ItemOID="IT.EC.ECROUTE" Value="SUBCUTANEOUS"/>
      <ItemData ItemOID="IT.EC.ECLOT" Value="SDS580-359"/>
      <ItemData ItemOID="IT.EC.ECPSTRG" Value="16.2"/>
      <ItemData ItemOID="IT.EC.ECPSTRGU" Value="g/L"/>
      <ItemData ItemOID="IT.EC.EPOCH" Value="TREATMENT"/>
      <ItemData ItemOID="IT.EC.ECSTDTC" Value="2013-10-02"/>
      <ItemData ItemOID="IT.EC.ECENDTC" Value="2013-10-02"/>
      <ItemData ItemOID="IT.EC.ECSTDY" Value="35"/>
      <ItemData ItemOID="IT.EC.ECENDY" Value="35"/>
    </ItemGroupData>
    <ItemGroupData ItemGroupOID="IG.EC" data:ItemGroupDataSeq="150">
      <ItemData ItemOID="IT.EC.STUDYID" Value="CDISCPILOT01"/>
      <ItemData ItemOID="IT.EC.DOMAIN" Value="EC"/>
      <ItemData ItemOID="IT.EC.USUBJID" Value="CDISC003"/>
      <ItemData ItemOID="IT.EC.SPDEVID" Value="DEV0003"/>
      <ItemData ItemOID="IT.EC.ECSEQ" Value="36"/>
      <ItemData ItemOID="IT.EC.ECTRT" Value="ZANOMALINE"/>
      <ItemData ItemOID="IT.EC.ECPRESP" Value="Y"/>
      <ItemData ItemOID="IT.EC.ECOCCUR" Value="Y"/>
      <ItemData ItemOID="IT.EC.ECDOSE" Value="5"/>
      <ItemData ItemOID="IT.EC.ECDOSU" Value="mL"/>
      <ItemData ItemOID="IT.EC.ECDOSFRM" Value="INJECTION"/>
      <ItemData ItemOID="IT.EC.ECDOSFRQ" Value="QD"/>
      <ItemData ItemOID="IT.EC.ECROUTE" Value="SUBCUTANEOUS"/>
      <ItemData ItemOID="IT.EC.ECLOT" Value="SDS580-359"/>
      <ItemData ItemOID="IT.EC.ECPSTRG" Value="16.2"/>
      <ItemData ItemOID="IT.EC.ECPSTRGU" Value="g/L"/>
      <ItemData ItemOID="IT.EC.EPOCH" Value="TREATMENT"/>
      <ItemData ItemOID="IT.EC.ECSTDTC" Value="2013-10-03"/>
      <ItemData ItemOID="IT.EC.ECENDTC" Value="2013-10-03"/>
      <ItemData ItemOID="IT.EC.ECSTDY" Value="36"/>
      <ItemData ItemOID="IT.EC.ECENDY" Value="36"/>
    </ItemGroupData>
    <ItemGroupData ItemGroupOID="IG.EC" data:ItemGroupDataSeq="151">
      <ItemData ItemOID="IT.EC.STUDYID" Value="CDISCPILOT01"/>
      <ItemData ItemOID="IT.EC.DOMAIN" Value="EC"/>
      <ItemData ItemOID="IT.EC.USUBJID" Value="CDISC003"/>
      <ItemData ItemOID="IT.EC.SPDEVID" Value="DEV0003"/>
      <ItemData ItemOID="IT.EC.ECSEQ" Value="37"/>
      <ItemData ItemOID="IT.EC.ECTRT" Value="ZANOMALINE"/>
      <ItemData ItemOID="IT.EC.ECPRESP" Value="Y"/>
      <ItemData ItemOID="IT.EC.ECOCCUR" Value="Y"/>
      <ItemData ItemOID="IT.EC.ECDOSE" Value="5"/>
      <ItemData ItemOID="IT.EC.ECDOSU" Value="mL"/>
      <ItemData ItemOID="IT.EC.ECDOSFRM" Value="INJECTION"/>
      <ItemData ItemOID="IT.EC.ECDOSFRQ" Value="QD"/>
      <ItemData ItemOID="IT.EC.ECROUTE" Value="SUBCUTANEOUS"/>
      <ItemData ItemOID="IT.EC.ECLOT" Value="SDS580-359"/>
      <ItemData ItemOID="IT.EC.ECPSTRG" Value="16.2"/>
      <ItemData ItemOID="IT.EC.ECPSTRGU" Value="g/L"/>
      <ItemData ItemOID="IT.EC.EPOCH" Value="TREATMENT"/>
      <ItemData ItemOID="IT.EC.ECSTDTC" Value="2013-10-04"/>
      <ItemData ItemOID="IT.EC.ECENDTC" Value="2013-10-04"/>
      <ItemData ItemOID="IT.EC.ECSTDY" Value="37"/>
      <ItemData ItemOID="IT.EC.ECENDY" Value="37"/>
    </ItemGroupData>
    <ItemGroupData ItemGroupOID="IG.EC" data:ItemGroupDataSeq="152">
      <ItemData ItemOID="IT.EC.STUDYID" Value="CDISCPILOT01"/>
      <ItemData ItemOID="IT.EC.DOMAIN" Value="EC"/>
      <ItemData ItemOID="IT.EC.USUBJID" Value="CDISC003"/>
      <ItemData ItemOID="IT.EC.SPDEVID" Value="DEV0003"/>
      <ItemData ItemOID="IT.EC.ECSEQ" Value="38"/>
      <ItemData ItemOID="IT.EC.ECTRT" Value="ZANOMALINE"/>
      <ItemData ItemOID="IT.EC.ECPRESP" Value="Y"/>
      <ItemData ItemOID="IT.EC.ECOCCUR" Value="Y"/>
      <ItemData ItemOID="IT.EC.ECDOSE" Value="5"/>
      <ItemData ItemOID="IT.EC.ECDOSU" Value="mL"/>
      <ItemData ItemOID="IT.EC.ECDOSFRM" Value="INJECTION"/>
      <ItemData ItemOID="IT.EC.ECDOSFRQ" Value="QD"/>
      <ItemData ItemOID="IT.EC.ECROUTE" Value="SUBCUTANEOUS"/>
      <ItemData ItemOID="IT.EC.ECLOT" Value="SDS580-359"/>
      <ItemData ItemOID="IT.EC.ECPSTRG" Value="16.2"/>
      <ItemData ItemOID="IT.EC.ECPSTRGU" Value="g/L"/>
      <ItemData ItemOID="IT.EC.EPOCH" Value="TREATMENT"/>
      <ItemData ItemOID="IT.EC.ECSTDTC" Value="2013-10-05"/>
      <ItemData ItemOID="IT.EC.ECENDTC" Value="2013-10-05"/>
      <ItemData ItemOID="IT.EC.ECSTDY" Value="38"/>
      <ItemData ItemOID="IT.EC.ECENDY" Value="38"/>
    </ItemGroupData>
    <ItemGroupData ItemGroupOID="IG.EC" data:ItemGroupDataSeq="153">
      <ItemData ItemOID="IT.EC.STUDYID" Value="CDISCPILOT01"/>
      <ItemData ItemOID="IT.EC.DOMAIN" Value="EC"/>
      <ItemData ItemOID="IT.EC.USUBJID" Value="CDISC003"/>
      <ItemData ItemOID="IT.EC.SPDEVID" Value="DEV0003"/>
      <ItemData ItemOID="IT.EC.ECSEQ" Value="39"/>
      <ItemData ItemOID="IT.EC.ECTRT" Value="ZANOMALINE"/>
      <ItemData ItemOID="IT.EC.ECPRESP" Value="Y"/>
      <ItemData ItemOID="IT.EC.ECOCCUR" Value="Y"/>
      <ItemData ItemOID="IT.EC.ECDOSE" Value="5"/>
      <ItemData ItemOID="IT.EC.ECDOSU" Value="mL"/>
      <ItemData ItemOID="IT.EC.ECDOSFRM" Value="INJECTION"/>
      <ItemData ItemOID="IT.EC.ECDOSFRQ" Value="QD"/>
      <ItemData ItemOID="IT.EC.ECROUTE" Value="SUBCUTANEOUS"/>
      <ItemData ItemOID="IT.EC.ECLOT" Value="SDS580-359"/>
      <ItemData ItemOID="IT.EC.ECPSTRG" Value="16.2"/>
      <ItemData ItemOID="IT.EC.ECPSTRGU" Value="g/L"/>
      <ItemData ItemOID="IT.EC.EPOCH" Value="TREATMENT"/>
      <ItemData ItemOID="IT.EC.ECSTDTC" Value="2013-10-06"/>
      <ItemData ItemOID="IT.EC.ECENDTC" Value="2013-10-06"/>
      <ItemData ItemOID="IT.EC.ECSTDY" Value="39"/>
      <ItemData ItemOID="IT.EC.ECENDY" Value="39"/>
    </ItemGroupData>
    <ItemGroupData ItemGroupOID="IG.EC" data:ItemGroupDataSeq="154">
      <ItemData ItemOID="IT.EC.STUDYID" Value="CDISCPILOT01"/>
      <ItemData ItemOID="IT.EC.DOMAIN" Value="EC"/>
      <ItemData ItemOID="IT.EC.USUBJID" Value="CDISC003"/>
      <ItemData ItemOID="IT.EC.SPDEVID" Value="DEV0003"/>
      <ItemData ItemOID="IT.EC.ECSEQ" Value="40"/>
      <ItemData ItemOID="IT.EC.ECTRT" Value="ZANOMALINE"/>
      <ItemData ItemOID="IT.EC.ECPRESP" Value="Y"/>
      <ItemData ItemOID="IT.EC.ECOCCUR" Value="Y"/>
      <ItemData ItemOID="IT.EC.ECDOSE" Value="5"/>
      <ItemData ItemOID="IT.EC.ECDOSU" Value="mL"/>
      <ItemData ItemOID="IT.EC.ECDOSFRM" Value="INJECTION"/>
      <ItemData ItemOID="IT.EC.ECDOSFRQ" Value="QD"/>
      <ItemData ItemOID="IT.EC.ECROUTE" Value="SUBCUTANEOUS"/>
      <ItemData ItemOID="IT.EC.ECLOT" Value="SDS580-359"/>
      <ItemData ItemOID="IT.EC.ECPSTRG" Value="16.2"/>
      <ItemData ItemOID="IT.EC.ECPSTRGU" Value="g/L"/>
      <ItemData ItemOID="IT.EC.EPOCH" Value="TREATMENT"/>
      <ItemData ItemOID="IT.EC.ECSTDTC" Value="2013-10-07"/>
      <ItemData ItemOID="IT.EC.ECENDTC" Value="2013-10-07"/>
      <ItemData ItemOID="IT.EC.ECSTDY" Value="40"/>
      <ItemData ItemOID="IT.EC.ECENDY" Value="40"/>
    </ItemGroupData>
    <ItemGroupData ItemGroupOID="IG.EC" data:ItemGroupDataSeq="155">
      <ItemData ItemOID="IT.EC.STUDYID" Value="CDISCPILOT01"/>
      <ItemData ItemOID="IT.EC.DOMAIN" Value="EC"/>
      <ItemData ItemOID="IT.EC.USUBJID" Value="CDISC003"/>
      <ItemData ItemOID="IT.EC.SPDEVID" Value="DEV0003"/>
      <ItemData ItemOID="IT.EC.ECSEQ" Value="41"/>
      <ItemData ItemOID="IT.EC.ECTRT" Value="ZANOMALINE"/>
      <ItemData ItemOID="IT.EC.ECPRESP" Value="Y"/>
      <ItemData ItemOID="IT.EC.ECOCCUR" Value="Y"/>
      <ItemData ItemOID="IT.EC.ECDOSE" Value="5"/>
      <ItemData ItemOID="IT.EC.ECDOSU" Value="mL"/>
      <ItemData ItemOID="IT.EC.ECDOSFRM" Value="INJECTION"/>
      <ItemData ItemOID="IT.EC.ECDOSFRQ" Value="QD"/>
      <ItemData ItemOID="IT.EC.ECROUTE" Value="SUBCUTANEOUS"/>
      <ItemData ItemOID="IT.EC.ECLOT" Value="SDS580-359"/>
      <ItemData ItemOID="IT.EC.ECPSTRG" Value="16.2"/>
      <ItemData ItemOID="IT.EC.ECPSTRGU" Value="g/L"/>
      <ItemData ItemOID="IT.EC.EPOCH" Value="TREATMENT"/>
      <ItemData ItemOID="IT.EC.ECSTDTC" Value="2013-10-08"/>
      <ItemData ItemOID="IT.EC.ECENDTC" Value="2013-10-08"/>
      <ItemData ItemOID="IT.EC.ECSTDY" Value="41"/>
      <ItemData ItemOID="IT.EC.ECENDY" Value="41"/>
    </ItemGroupData>
    <ItemGroupData ItemGroupOID="IG.EC" data:ItemGroupDataSeq="156">
      <ItemData ItemOID="IT.EC.STUDYID" Value="CDISCPILOT01"/>
      <ItemData ItemOID="IT.EC.DOMAIN" Value="EC"/>
      <ItemData ItemOID="IT.EC.USUBJID" Value="CDISC003"/>
      <ItemData ItemOID="IT.EC.SPDEVID" Value="DEV0003"/>
      <ItemData ItemOID="IT.EC.ECSEQ" Value="42"/>
      <ItemData ItemOID="IT.EC.ECTRT" Value="ZANOMALINE"/>
      <ItemData ItemOID="IT.EC.ECPRESP" Value="Y"/>
      <ItemData ItemOID="IT.EC.ECOCCUR" Value="Y"/>
      <ItemData ItemOID="IT.EC.ECDOSE" Value="5"/>
      <ItemData ItemOID="IT.EC.ECDOSU" Value="mL"/>
      <ItemData ItemOID="IT.EC.ECDOSFRM" Value="INJECTION"/>
      <ItemData ItemOID="IT.EC.ECDOSFRQ" Value="QD"/>
      <ItemData ItemOID="IT.EC.ECROUTE" Value="SUBCUTANEOUS"/>
      <ItemData ItemOID="IT.EC.ECLOT" Value="SDS580-359"/>
      <ItemData ItemOID="IT.EC.ECPSTRG" Value="16.2"/>
      <ItemData ItemOID="IT.EC.ECPSTRGU" Value="g/L"/>
      <ItemData ItemOID="IT.EC.EPOCH" Value="TREATMENT"/>
      <ItemData ItemOID="IT.EC.ECSTDTC" Value="2013-10-09"/>
      <ItemData ItemOID="IT.EC.ECENDTC" Value="2013-10-09"/>
      <ItemData ItemOID="IT.EC.ECSTDY" Value="42"/>
      <ItemData ItemOID="IT.EC.ECENDY" Value="42"/>
    </ItemGroupData>
    <ItemGroupData ItemGroupOID="IG.EC" data:ItemGroupDataSeq="157">
      <ItemData ItemOID="IT.EC.STUDYID" Value="CDISCPILOT01"/>
      <ItemData ItemOID="IT.EC.DOMAIN" Value="EC"/>
      <ItemData ItemOID="IT.EC.USUBJID" Value="CDISC003"/>
      <ItemData ItemOID="IT.EC.SPDEVID" Value="DEV0003"/>
      <ItemData ItemOID="IT.EC.ECSEQ" Value="43"/>
      <ItemData ItemOID="IT.EC.ECTRT" Value="ZANOMALINE"/>
      <ItemData ItemOID="IT.EC.ECPRESP" Value="Y"/>
      <ItemData ItemOID="IT.EC.ECOCCUR" Value="Y"/>
      <ItemData ItemOID="IT.EC.ECDOSE" Value="5"/>
      <ItemData ItemOID="IT.EC.ECDOSU" Value="mL"/>
      <ItemData ItemOID="IT.EC.ECDOSFRM" Value="INJECTION"/>
      <ItemData ItemOID="IT.EC.ECDOSFRQ" Value="QD"/>
      <ItemData ItemOID="IT.EC.ECROUTE" Value="SUBCUTANEOUS"/>
      <ItemData ItemOID="IT.EC.ECLOT" Value="SDS580-359"/>
      <ItemData ItemOID="IT.EC.ECPSTRG" Value="16.2"/>
      <ItemData ItemOID="IT.EC.ECPSTRGU" Value="g/L"/>
      <ItemData ItemOID="IT.EC.EPOCH" Value="TREATMENT"/>
      <ItemData ItemOID="IT.EC.ECSTDTC" Value="2013-10-10"/>
      <ItemData ItemOID="IT.EC.ECENDTC" Value="2013-10-10"/>
      <ItemData ItemOID="IT.EC.ECSTDY" Value="43"/>
