<?xml version="1.0" encoding="UTF-8"?>
<!-- Dataset-XML: Untyped Data Example  --> 
<!-- Built from the SAS XPT files published with the SDTM-MSG (SDTM Metadata Submission Guidelines) V2.0 --> 
<ODM
  xmlns="http://www.cdisc.org/ns/odm/v1.3"
  xmlns:xlink="http://www.w3.org/1999/xlink" 
  xmlns:data="http://www.cdisc.org/ns/Dataset-XML/v1.0"
  FileType="Snapshot"
  ODMVersion="1.3.2"
  data:DatasetXMLVersion="1.0.0"
  FileOID="www.cdisc.org/StudyMSGv2/1/Define-XML_2.1.0(IG.FA).Data(FA)"
  PriorFileOID="www.cdisc.org/StudyMSGv2/1/Define-XML_2.1.0"
  CreationDateTime="2020-08-21T09:21:13"
  Originator="CDISC MSG Team"
  SourceSystem="M.Hungria-System"
  SourceSystemVersion="2.1-A1"
  >
  <ClinicalData
    StudyOID="cdisc.com/CDISCPILOT01"
    MetaDataVersionOID="MDV.MSGv2.0.SDTMIG.3.3.SDTM.1.7">
    <!-- Dataset (FA) -->
    <ItemGroupData ItemGroupOID="IG.FA" data:ItemGroupDataSeq="1">
      <ItemData ItemOID="IT.FA.STUDYID" Value="CDISCPILOT01"/>
      <ItemData ItemOID="IT.FA.DOMAIN" Value="FA"/>
      <ItemData ItemOID="IT.FA.USUBJID" Value="CDISC001"/>
      <ItemData ItemOID="IT.FA.FASEQ" Value="1"/>
      <ItemData ItemOID="IT.FA.FALNKGRP" Value="1"/>
      <ItemData ItemOID="IT.FA.FATESTCD" Value="OCCUR"/>
      <ItemData ItemOID="IT.FA.FATEST" Value="Occurrence Indicator"/>
      <ItemData ItemOID="IT.FA.FAOBJ" Value="ERYTHEMA"/>
      <ItemData ItemOID="IT.FA.FACAT" Value="INJECTION SITE REACTION"/>
      <ItemData ItemOID="IT.FA.FAORRES" Value="Y"/>
      <ItemData ItemOID="IT.FA.FASTRESC" Value="Y"/>
      <ItemData ItemOID="IT.FA.FALOC" Value="ARM"/>
      <ItemData ItemOID="IT.FA.EPOCH" Value="TREATMENT"/>
      <ItemData ItemOID="IT.FA.FADTC" Value="2012-12-02"/>
      <ItemData ItemOID="IT.FA.FADY" Value="3"/>
    </ItemGroupData>
    <ItemGroupData ItemGroupOID="IG.FA" data:ItemGroupDataSeq="2">
      <ItemData ItemOID="IT.FA.STUDYID" Value="CDISCPILOT01"/>
      <ItemData ItemOID="IT.FA.DOMAIN" Value="FA"/>
      <ItemData ItemOID="IT.FA.USUBJID" Value="CDISC001"/>
      <ItemData ItemOID="IT.FA.FASEQ" Value="2"/>
      <ItemData ItemOID="IT.FA.FALNKGRP" Value="1"/>
      <ItemData ItemOID="IT.FA.FATESTCD" Value="SEV"/>
      <ItemData ItemOID="IT.FA.FATEST" Value="Severity/Intensity"/>
      <ItemData ItemOID="IT.FA.FAOBJ" Value="ERYTHEMA"/>
      <ItemData ItemOID="IT.FA.FACAT" Value="INJECTION SITE REACTION"/>
      <ItemData ItemOID="IT.FA.FAORRES" Value="MODERATE"/>
      <ItemData ItemOID="IT.FA.FASTRESC" Value="MODERATE"/>
      <ItemData ItemOID="IT.FA.FALOC" Value="ARM"/>
      <ItemData ItemOID="IT.FA.EPOCH" Value="TREATMENT"/>
      <ItemData ItemOID="IT.FA.FADTC" Value="2012-12-02"/>
      <ItemData ItemOID="IT.FA.FADY" Value="3"/>
    </ItemGroupData>
    <ItemGroupData ItemGroupOID="IG.FA" data:ItemGroupDataSeq="3">
      <ItemData ItemOID="IT.FA.STUDYID" Value="CDISCPILOT01"/>
      <ItemData ItemOID="IT.FA.DOMAIN" Value="FA"/>
      <ItemData ItemOID="IT.FA.USUBJID" Value="CDISC001"/>
      <ItemData ItemOID="IT.FA.FASEQ" Value="3"/>
      <ItemData ItemOID="IT.FA.FALNKGRP" Value="1"/>
      <ItemData ItemOID="IT.FA.FATESTCD" Value="OCCUR"/>
      <ItemData ItemOID="IT.FA.FATEST" Value="Occurrence Indicator"/>
      <ItemData ItemOID="IT.FA.FAOBJ" Value="PAIN"/>
      <ItemData ItemOID="IT.FA.FACAT" Value="INJECTION SITE REACTION"/>
      <ItemData ItemOID="IT.FA.FAORRES" Value="N"/>
      <ItemData ItemOID="IT.FA.FASTRESC" Value="N"/>
      <ItemData ItemOID="IT.FA.FALOC" Value="ARM"/>
      <ItemData ItemOID="IT.FA.EPOCH" Value="TREATMENT"/>
      <ItemData ItemOID="IT.FA.FADTC" Value="2012-12-02"/>
      <ItemData ItemOID="IT.FA.FADY" Value="3"/>
    </ItemGroupData>
    <ItemGroupData ItemGroupOID="IG.FA" data:ItemGroupDataSeq="4">
      <ItemData ItemOID="IT.FA.STUDYID" Value="CDISCPILOT01"/>
      <ItemData ItemOID="IT.FA.DOMAIN" Value="FA"/>
      <ItemData ItemOID="IT.FA.USUBJID" Value="CDISC001"/>
      <ItemData ItemOID="IT.FA.FASEQ" Value="4"/>
      <ItemData ItemOID="IT.FA.FALNKGRP" Value="1"/>
      <ItemData ItemOID="IT.FA.FATESTCD" Value="OCCUR"/>
      <ItemData ItemOID="IT.FA.FATEST" Value="Occurrence Indicator"/>
      <ItemData ItemOID="IT.FA.FAOBJ" Value="INDURATION"/>
      <ItemData ItemOID="IT.FA.FACAT" Value="INJECTION SITE REACTION"/>
      <ItemData ItemOID="IT.FA.FAORRES" Value="N"/>
      <ItemData ItemOID="IT.FA.FASTRESC" Value="N"/>
      <ItemData ItemOID="IT.FA.FALOC" Value="ARM"/>
      <ItemData ItemOID="IT.FA.EPOCH" Value="TREATMENT"/>
      <ItemData ItemOID="IT.FA.FADTC" Value="2012-12-02"/>
      <ItemData ItemOID="IT.FA.FADY" Value="3"/>
    </ItemGroupData>
    <ItemGroupData ItemGroupOID="IG.FA" data:ItemGroupDataSeq="5">
      <ItemData ItemOID="IT.FA.STUDYID" Value="CDISCPILOT01"/>
      <ItemData ItemOID="IT.FA.DOMAIN" Value="FA"/>
      <ItemData ItemOID="IT.FA.USUBJID" Value="CDISC001"/>
      <ItemData ItemOID="IT.FA.FASEQ" Value="5"/>
      <ItemData ItemOID="IT.FA.FALNKGRP" Value="1"/>
      <ItemData ItemOID="IT.FA.FATESTCD" Value="OCCUR"/>
      <ItemData ItemOID="IT.FA.FATEST" Value="Occurrence Indicator"/>
      <ItemData ItemOID="IT.FA.FAOBJ" Value="PRURITIS"/>
      <ItemData ItemOID="IT.FA.FACAT" Value="INJECTION SITE REACTION"/>
      <ItemData ItemOID="IT.FA.FAORRES" Value="N"/>
      <ItemData ItemOID="IT.FA.FASTRESC" Value="N"/>
      <ItemData ItemOID="IT.FA.FALOC" Value="ARM"/>
      <ItemData ItemOID="IT.FA.EPOCH" Value="TREATMENT"/>
      <ItemData ItemOID="IT.FA.FADTC" Value="2012-12-02"/>
      <ItemData ItemOID="IT.FA.FADY" Value="3"/>
    </ItemGroupData>
    <ItemGroupData ItemGroupOID="IG.FA" data:ItemGroupDataSeq="6">
      <ItemData ItemOID="IT.FA.STUDYID" Value="CDISCPILOT01"/>
      <ItemData ItemOID="IT.FA.DOMAIN" Value="FA"/>
      <ItemData ItemOID="IT.FA.USUBJID" Value="CDISC001"/>
      <ItemData ItemOID="IT.FA.FASEQ" Value="6"/>
      <ItemData ItemOID="IT.FA.FALNKGRP" Value="1"/>
      <ItemData ItemOID="IT.FA.FATESTCD" Value="OCCUR"/>
      <ItemData ItemOID="IT.FA.FATEST" Value="Occurrence Indicator"/>
      <ItemData ItemOID="IT.FA.FAOBJ" Value="EDEMA"/>
      <ItemData ItemOID="IT.FA.FACAT" Value="INJECTION SITE REACTION"/>
      <ItemData ItemOID="IT.FA.FAORRES" Value="N"/>
      <ItemData ItemOID="IT.FA.FASTRESC" Value="N"/>
      <ItemData ItemOID="IT.FA.FALOC" Value="ARM"/>
      <ItemData ItemOID="IT.FA.EPOCH" Value="TREATMENT"/>
      <ItemData ItemOID="IT.FA.FADTC" Value="2012-12-02"/>
      <ItemData ItemOID="IT.FA.FADY" Value="3"/>
    </ItemGroupData>
    <ItemGroupData ItemGroupOID="IG.FA" data:ItemGroupDataSeq="7">
      <ItemData ItemOID="IT.FA.STUDYID" Value="CDISCPILOT01"/>
      <ItemData ItemOID="IT.FA.DOMAIN" Value="FA"/>
      <ItemData ItemOID="IT.FA.USUBJID" Value="CDISC002"/>
      <ItemData ItemOID="IT.FA.FASEQ" Value="1"/>
      <ItemData ItemOID="IT.FA.FALNKGRP" Value="1"/>
      <ItemData ItemOID="IT.FA.FATESTCD" Value="OCCUR"/>
      <ItemData ItemOID="IT.FA.FATEST" Value="Occurrence Indicator"/>
      <ItemData ItemOID="IT.FA.FAOBJ" Value="ERYTHEMA"/>
      <ItemData ItemOID="IT.FA.FACAT" Value="INJECTION SITE REACTION"/>
      <ItemData ItemOID="IT.FA.FAORRES" Value="N"/>
      <ItemData ItemOID="IT.FA.FASTRESC" Value="N"/>
      <ItemData ItemOID="IT.FA.FALOC" Value="ARM"/>
      <ItemData ItemOID="IT.FA.EPOCH" Value="TREATMENT"/>
      <ItemData ItemOID="IT.FA.FADTC" Value="2012-11-16"/>
      <ItemData ItemOID="IT.FA.FADY" Value="2"/>
    </ItemGroupData>
    <ItemGroupData ItemGroupOID="IG.FA" data:ItemGroupDataSeq="8">
      <ItemData ItemOID="IT.FA.STUDYID" Value="CDISCPILOT01"/>
      <ItemData ItemOID="IT.FA.DOMAIN" Value="FA"/>
      <ItemData ItemOID="IT.FA.USUBJID" Value="CDISC002"/>
      <ItemData ItemOID="IT.FA.FASEQ" Value="2"/>
      <ItemData ItemOID="IT.FA.FALNKGRP" Value="1"/>
      <ItemData ItemOID="IT.FA.FATESTCD" Value="OCCUR"/>
      <ItemData ItemOID="IT.FA.FATEST" Value="Occurrence Indicator"/>
      <ItemData ItemOID="IT.FA.FAOBJ" Value="PAIN"/>
      <ItemData ItemOID="IT.FA.FACAT" Value="INJECTION SITE REACTION"/>
      <ItemData ItemOID="IT.FA.FAORRES" Value="N"/>
      <ItemData ItemOID="IT.FA.FASTRESC" Value="N"/>
      <ItemData ItemOID="IT.FA.FALOC" Value="ARM"/>
      <ItemData ItemOID="IT.FA.EPOCH" Value="TREATMENT"/>
      <ItemData ItemOID="IT.FA.FADTC" Value="2012-11-16"/>
      <ItemData ItemOID="IT.FA.FADY" Value="2"/>
    </ItemGroupData>
    <ItemGroupData ItemGroupOID="IG.FA" data:ItemGroupDataSeq="9">
      <ItemData ItemOID="IT.FA.STUDYID" Value="CDISCPILOT01"/>
      <ItemData ItemOID="IT.FA.DOMAIN" Value="FA"/>
      <ItemData ItemOID="IT.FA.USUBJID" Value="CDISC002"/>
      <ItemData ItemOID="IT.FA.FASEQ" Value="3"/>
      <ItemData ItemOID="IT.FA.FALNKGRP" Value="1"/>
      <ItemData ItemOID="IT.FA.FATESTCD" Value="OCCUR"/>
      <ItemData ItemOID="IT.FA.FATEST" Value="Occurrence Indicator"/>
      <ItemData ItemOID="IT.FA.FAOBJ" Value="INDURATION"/>
      <ItemData ItemOID="IT.FA.FACAT" Value="INJECTION SITE REACTION"/>
      <ItemData ItemOID="IT.FA.FAORRES" Value="N"/>
      <ItemData ItemOID="IT.FA.FASTRESC" Value="N"/>
      <ItemData ItemOID="IT.FA.FALOC" Value="ARM"/>
      <ItemData ItemOID="IT.FA.EPOCH" Value="TREATMENT"/>
      <ItemData ItemOID="IT.FA.FADTC" Value="2012-11-16"/>
      <ItemData ItemOID="IT.FA.FADY" Value="2"/>
    </ItemGroupData>
    <ItemGroupData ItemGroupOID="IG.FA" data:ItemGroupDataSeq="10">
      <ItemData ItemOID="IT.FA.STUDYID" Value="CDISCPILOT01"/>
      <ItemData ItemOID="IT.FA.DOMAIN" Value="FA"/>
      <ItemData ItemOID="IT.FA.USUBJID" Value="CDISC002"/>
      <ItemData ItemOID="IT.FA.FASEQ" Value="4"/>
      <ItemData ItemOID="IT.FA.FALNKGRP" Value="1"/>
      <ItemData ItemOID="IT.FA.FATESTCD" Value="OCCUR"/>
      <ItemData ItemOID="IT.FA.FATEST" Value="Occurrence Indicator"/>
      <ItemData ItemOID="IT.FA.FAOBJ" Value="PRURITIS"/>
      <ItemData ItemOID="IT.FA.FACAT" Value="INJECTION SITE REACTION"/>
      <ItemData ItemOID="IT.FA.FAORRES" Value="Y"/>
      <ItemData ItemOID="IT.FA.FASTRESC" Value="Y"/>
      <ItemData ItemOID="IT.FA.FALOC" Value="ARM"/>
      <ItemData ItemOID="IT.FA.EPOCH" Value="TREATMENT"/>
      <ItemData ItemOID="IT.FA.FADTC" Value="2012-11-16"/>
      <ItemData ItemOID="IT.FA.FADY" Value="2"/>
    </ItemGroupData>
    <ItemGroupData ItemGroupOID="IG.FA" data:ItemGroupDataSeq="11">
      <ItemData ItemOID="IT.FA.STUDYID" Value="CDISCPILOT01"/>
      <ItemData ItemOID="IT.FA.DOMAIN" Value="FA"/>
      <ItemData ItemOID="IT.FA.USUBJID" Value="CDISC002"/>
      <ItemData ItemOID="IT.FA.FASEQ" Value="5"/>
      <ItemData ItemOID="IT.FA.FALNKGRP" Value="1"/>
      <ItemData ItemOID="IT.FA.FATESTCD" Value="SEV"/>
      <ItemData ItemOID="IT.FA.FATEST" Value="Severity/Intensity"/>
      <ItemData ItemOID="IT.FA.FAOBJ" Value="PRURITIS"/>
      <ItemData ItemOID="IT.FA.FACAT" Value="INJECTION SITE REACTION"/>
      <ItemData ItemOID="IT.FA.FAORRES" Value="MILD"/>
      <ItemData ItemOID="IT.FA.FASTRESC" Value="MILD"/>
      <ItemData ItemOID="IT.FA.FALOC" Value="ARM"/>
      <ItemData ItemOID="IT.FA.EPOCH" Value="TREATMENT"/>
      <ItemData ItemOID="IT.FA.FADTC" Value="2012-11-16"/>
      <ItemData ItemOID="IT.FA.FADY" Value="2"/>
    </ItemGroupData>
    <ItemGroupData ItemGroupOID="IG.FA" data:ItemGroupDataSeq="12">
      <ItemData ItemOID="IT.FA.STUDYID" Value="CDISCPILOT01"/>
      <ItemData ItemOID="IT.FA.DOMAIN" Value="FA"/>
      <ItemData ItemOID="IT.FA.USUBJID" Value="CDISC002"/>
      <ItemData ItemOID="IT.FA.FASEQ" Value="6"/>
      <ItemData ItemOID="IT.FA.FALNKGRP" Value="1"/>
      <ItemData ItemOID="IT.FA.FATESTCD" Value="OCCUR"/>
      <ItemData ItemOID="IT.FA.FATEST" Value="Occurrence Indicator"/>
      <ItemData ItemOID="IT.FA.FAOBJ" Value="EDEMA"/>
      <ItemData ItemOID="IT.FA.FACAT" Value="INJECTION SITE REACTION"/>
      <ItemData ItemOID="IT.FA.FAORRES" Value="N"/>
      <ItemData ItemOID="IT.FA.FASTRESC" Value="N"/>
      <ItemData ItemOID="IT.FA.FALOC" Value="ARM"/>
      <ItemData ItemOID="IT.FA.EPOCH" Value="TREATMENT"/>
      <ItemData ItemOID="IT.FA.FADTC" Value="2012-11-16"/>
      <ItemData ItemOID="IT.FA.FADY" Value="2"/>
    </ItemGroupData>
    <ItemGroupData ItemGroupOID="IG.FA" data:ItemGroupDataSeq="13">
      <ItemData ItemOID="IT.FA.STUDYID" Value="CDISCPILOT01"/>
      <ItemData ItemOID="IT.FA.DOMAIN" Value="FA"/>
      <ItemData ItemOID="IT.FA.USUBJID" Value="CDISC002"/>
      <ItemData ItemOID="IT.FA.FASEQ" Value="7"/>
      <ItemData ItemOID="IT.FA.FALNKGRP" Value="5"/>
      <ItemData ItemOID="IT.FA.FATESTCD" Value="OCCUR"/>
      <ItemData ItemOID="IT.FA.FATEST" Value="Occurrence Indicator"/>
      <ItemData ItemOID="IT.FA.FAOBJ" Value="ERYTHEMA"/>
      <ItemData ItemOID="IT.FA.FACAT" Value="INJECTION SITE REACTION"/>
      <ItemData ItemOID="IT.FA.FAORRES" Value="Y"/>
      <ItemData ItemOID="IT.FA.FASTRESC" Value="Y"/>
      <ItemData ItemOID="IT.FA.FALOC" Value="ARM"/>
      <ItemData ItemOID="IT.FA.EPOCH" Value="TREATMENT"/>
      <ItemData ItemOID="IT.FA.FADTC" Value="2012-11-29"/>
      <ItemData ItemOID="IT.FA.FADY" Value="15"/>
    </ItemGroupData>
    <ItemGroupData ItemGroupOID="IG.FA" data:ItemGroupDataSeq="14">
      <ItemData ItemOID="IT.FA.STUDYID" Value="CDISCPILOT01"/>
      <ItemData ItemOID="IT.FA.DOMAIN" Value="FA"/>
      <ItemData ItemOID="IT.FA.USUBJID" Value="CDISC002"/>
      <ItemData ItemOID="IT.FA.FASEQ" Value="8"/>
      <ItemData ItemOID="IT.FA.FALNKGRP" Value="5"/>
      <ItemData ItemOID="IT.FA.FATESTCD" Value="SEV"/>
      <ItemData ItemOID="IT.FA.FATEST" Value="Severity/Intensity"/>
      <ItemData ItemOID="IT.FA.FAOBJ" Value="ERYTHEMA"/>
      <ItemData ItemOID="IT.FA.FACAT" Value="INJECTION SITE REACTION"/>
      <ItemData ItemOID="IT.FA.FAORRES" Value="MILD"/>
      <ItemData ItemOID="IT.FA.FASTRESC" Value="MILD"/>
      <ItemData ItemOID="IT.FA.FALOC" Value="ARM"/>
      <ItemData ItemOID="IT.FA.EPOCH" Value="TREATMENT"/>
      <ItemData ItemOID="IT.FA.FADTC" Value="2012-11-29"/>
      <ItemData ItemOID="IT.FA.FADY" Value="15"/>
    </ItemGroupData>
    <ItemGroupData ItemGroupOID="IG.FA" data:ItemGroupDataSeq="15">
      <ItemData ItemOID="IT.FA.STUDYID" Value="CDISCPILOT01"/>
      <ItemData ItemOID="IT.FA.DOMAIN" Value="FA"/>
      <ItemData ItemOID="IT.FA.USUBJID" Value="CDISC002"/>
      <ItemData ItemOID="IT.FA.FASEQ" Value="9"/>
      <ItemData ItemOID="IT.FA.FALNKGRP" Value="5"/>
      <ItemData ItemOID="IT.FA.FATESTCD" Value="OCCUR"/>
      <ItemData ItemOID="IT.FA.FATEST" Value="Occurrence Indicator"/>
      <ItemData ItemOID="IT.FA.FAOBJ" Value="PAIN"/>
      <ItemData ItemOID="IT.FA.FACAT" Value="INJECTION SITE REACTION"/>
      <ItemData ItemOID="IT.FA.FAORRES" Value="N"/>
      <ItemData ItemOID="IT.FA.FASTRESC" Value="N"/>
      <ItemData ItemOID="IT.FA.FALOC" Value="ARM"/>
      <ItemData ItemOID="IT.FA.EPOCH" Value="TREATMENT"/>
      <ItemData ItemOID="IT.FA.FADTC" Value="2012-11-29"/>
      <ItemData ItemOID="IT.FA.FADY" Value="15"/>
    </ItemGroupData>
    <ItemGroupData ItemGroupOID="IG.FA" data:ItemGroupDataSeq="16">
      <ItemData ItemOID="IT.FA.STUDYID" Value="CDISCPILOT01"/>
      <ItemData ItemOID="IT.FA.DOMAIN" Value="FA"/>
      <ItemData ItemOID="IT.FA.USUBJID" Value="CDISC002"/>
      <ItemData ItemOID="IT.FA.FASEQ" Value="10"/>
      <ItemData ItemOID="IT.FA.FALNKGRP" Value="5"/>
      <ItemData ItemOID="IT.FA.FATESTCD" Value="OCCUR"/>
      <ItemData ItemOID="IT.FA.FATEST" Value="Occurrence Indicator"/>
      <ItemData ItemOID="IT.FA.FAOBJ" Value="INDURATION"/>
      <ItemData ItemOID="IT.FA.FACAT" Value="INJECTION SITE REACTION"/>
      <ItemData ItemOID="IT.FA.FAORRES" Value="N"/>
      <ItemData ItemOID="IT.FA.FASTRESC" Value="N"/>
      <ItemData ItemOID="IT.FA.FALOC" Value="ARM"/>
      <ItemData ItemOID="IT.FA.EPOCH" Value="TREATMENT"/>
      <ItemData ItemOID="IT.FA.FADTC" Value="2012-11-29"/>
      <ItemData ItemOID="IT.FA.FADY" Value="15"/>
    </ItemGroupData>
    <ItemGroupData ItemGroupOID="IG.FA" data:ItemGroupDataSeq="17">
      <ItemData ItemOID="IT.FA.STUDYID" Value="CDISCPILOT01"/>
      <ItemData ItemOID="IT.FA.DOMAIN" Value="FA"/>
      <ItemData ItemOID="IT.FA.USUBJID" Value="CDISC002"/>
      <ItemData ItemOID="IT.FA.FASEQ" Value="11"/>
      <ItemData ItemOID="IT.FA.FALNKGRP" Value="5"/>
      <ItemData ItemOID="IT.FA.FATESTCD" Value="OCCUR"/>
      <ItemData ItemOID="IT.FA.FATEST" Value="Occurrence Indicator"/>
      <ItemData ItemOID="IT.FA.FAOBJ" Value="PRURITIS"/>
      <ItemData ItemOID="IT.FA.FACAT" Value="INJECTION SITE REACTION"/>
      <ItemData ItemOID="IT.FA.FAORRES" Value="N"/>
      <ItemData ItemOID="IT.FA.FASTRESC" Value="N"/>
      <ItemData ItemOID="IT.FA.FALOC" Value="ARM"/>
      <ItemData ItemOID="IT.FA.EPOCH" Value="TREATMENT"/>
      <ItemData ItemOID="IT.FA.FADTC" Value="2012-11-29"/>
      <ItemData ItemOID="IT.FA.FADY" Value="15"/>
    </ItemGroupData>
    <ItemGroupData ItemGroupOID="IG.FA" data:ItemGroupDataSeq="18">
      <ItemData ItemOID="IT.FA.STUDYID" Value="CDISCPILOT01"/>
      <ItemData ItemOID="IT.FA.DOMAIN" Value="FA"/>
      <ItemData ItemOID="IT.FA.USUBJID" Value="CDISC002"/>
      <ItemData ItemOID="IT.FA.FASEQ" Value="12"/>
      <ItemData ItemOID="IT.FA.FALNKGRP" Value="5"/>
      <ItemData ItemOID="IT.FA.FATESTCD" Value="OCCUR"/>
      <ItemData ItemOID="IT.FA.FATEST" Value="Occurrence Indicator"/>
      <ItemData ItemOID="IT.FA.FAOBJ" Value="EDEMA"/>
      <ItemData ItemOID="IT.FA.FACAT" Value="INJECTION SITE REACTION"/>
      <ItemData ItemOID="IT.FA.FAORRES" Value="N"/>
      <ItemData ItemOID="IT.FA.FASTRESC" Value="N"/>
      <ItemData ItemOID="IT.FA.FALOC" Value="ARM"/>
      <ItemData ItemOID="IT.FA.EPOCH" Value="TREATMENT"/>
      <ItemData ItemOID="IT.FA.FADTC" Value="2012-11-29"/>
      <ItemData ItemOID="IT.FA.FADY" Value="15"/>
    </ItemGroupData>
    <ItemGroupData ItemGroupOID="IG.FA" data:ItemGroupDataSeq="19">
      <ItemData ItemOID="IT.FA.STUDYID" Value="CDISCPILOT01"/>
      <ItemData ItemOID="IT.FA.DOMAIN" Value="FA"/>
      <ItemData ItemOID="IT.FA.USUBJID" Value="CDISC003"/>
      <ItemData ItemOID="IT.FA.FASEQ" Value="1"/>
      <ItemData ItemOID="IT.FA.FALNKGRP" Value="14"/>
      <ItemData ItemOID="IT.FA.FATESTCD" Value="OCCUR"/>
      <ItemData ItemOID="IT.FA.FATEST" Value="Occurrence Indicator"/>
      <ItemData ItemOID="IT.FA.FAOBJ" Value="ERYTHEMA"/>
      <ItemData ItemOID="IT.FA.FACAT" Value="INJECTION SITE REACTION"/>
      <ItemData ItemOID="IT.FA.FAORRES" Value="Y"/>
      <ItemData ItemOID="IT.FA.FASTRESC" Value="Y"/>
      <ItemData ItemOID="IT.FA.FALOC" Value="ARM"/>
      <ItemData ItemOID="IT.FA.EPOCH" Value="TREATMENT"/>
      <ItemData ItemOID="IT.FA.FADTC" Value="2013-10-15"/>
      <ItemData ItemOID="IT.FA.FADY" Value="48"/>
    </ItemGroupData>
    <ItemGroupData ItemGroupOID="IG.FA" data:ItemGroupDataSeq="20">
      <ItemData ItemOID="IT.FA.STUDYID" Value="CDISCPILOT01"/>
      <ItemData ItemOID="IT.FA.DOMAIN" Value="FA"/>
      <ItemData ItemOID="IT.FA.USUBJID" Value="CDISC003"/>
      <ItemData ItemOID="IT.FA.FASEQ" Value="2"/>
      <ItemData ItemOID="IT.FA.FALNKGRP" Value="14"/>
      <ItemData ItemOID="IT.FA.FATESTCD" Value="SEV"/>
      <ItemData ItemOID="IT.FA.FATEST" Value="Severity/Intensity"/>
      <ItemData ItemOID="IT.FA.FAOBJ" Value="ERYTHEMA"/>
      <ItemData ItemOID="IT.FA.FACAT" Value="INJECTION SITE REACTION"/>
      <ItemData ItemOID="IT.FA.FAORRES" Value="MILD"/>
      <ItemData ItemOID="IT.FA.FASTRESC" Value="MILD"/>
      <ItemData ItemOID="IT.FA.FALOC" Value="ARM"/>
      <ItemData ItemOID="IT.FA.EPOCH" Value="TREATMENT"/>
      <ItemData ItemOID="IT.FA.FADTC" Value="2013-10-15"/>
      <ItemData ItemOID="IT.FA.FADY" Value="48"/>
    </ItemGroupData>
    <ItemGroupData ItemGroupOID="IG.FA" data:ItemGroupDataSeq="21">
      <ItemData ItemOID="IT.FA.STUDYID" Value="CDISCPILOT01"/>
      <ItemData ItemOID="IT.FA.DOMAIN" Value="FA"/>
      <ItemData ItemOID="IT.FA.USUBJID" Value="CDISC003"/>
      <ItemData ItemOID="IT.FA.FASEQ" Value="3"/>
      <ItemData ItemOID="IT.FA.FALNKGRP" Value="14"/>
      <ItemData ItemOID="IT.FA.FATESTCD" Value="OCCUR"/>
      <ItemData ItemOID="IT.FA.FATEST" Value="Occurrence Indicator"/>
      <ItemData ItemOID="IT.FA.FAOBJ" Value="PAIN"/>
      <ItemData ItemOID="IT.FA.FACAT" Value="INJECTION SITE REACTION"/>
      <ItemData ItemOID="IT.FA.FAORRES" Value="N"/>
      <ItemData ItemOID="IT.FA.FASTRESC" Value="N"/>
      <ItemData ItemOID="IT.FA.FALOC" Value="ARM"/>
      <ItemData ItemOID="IT.FA.EPOCH" Value="TREATMENT"/>
      <ItemData ItemOID="IT.FA.FADTC" Value="2013-10-15"/>
      <ItemData ItemOID="IT.FA.FADY" Value="48"/>
    </ItemGroupData>
    <ItemGroupData ItemGroupOID="IG.FA" data:ItemGroupDataSeq="22">
      <ItemData ItemOID="IT.FA.STUDYID" Value="CDISCPILOT01"/>
      <ItemData ItemOID="IT.FA.DOMAIN" Value="FA"/>
      <ItemData ItemOID="IT.FA.USUBJID" Value="CDISC003"/>
      <ItemData ItemOID="IT.FA.FASEQ" Value="4"/>
      <ItemData ItemOID="IT.FA.FALNKGRP" Value="14"/>
      <ItemData ItemOID="IT.FA.FATESTCD" Value="OCCUR"/>
      <ItemData ItemOID="IT.FA.FATEST" Value="Occurrence Indicator"/>
      <ItemData ItemOID="IT.FA.FAOBJ" Value="INDURATION"/>
      <ItemData ItemOID="IT.FA.FACAT" Value="INJECTION SITE REACTION"/>
      <ItemData ItemOID="IT.FA.FAORRES" Value="N"/>
      <ItemData ItemOID="IT.FA.FASTRESC" Value="N"/>
      <ItemData ItemOID="IT.FA.FALOC" Value="ARM"/>
      <ItemData ItemOID="IT.FA.EPOCH" Value="TREATMENT"/>
      <ItemData ItemOID="IT.FA.FADTC" Value="2013-10-15"/>
      <ItemData ItemOID="IT.FA.FADY" Value="48"/>
    </ItemGroupData>
    <ItemGroupData ItemGroupOID="IG.FA" data:ItemGroupDataSeq="23">
      <ItemData ItemOID="IT.FA.STUDYID" Value="CDISCPILOT01"/>
      <ItemData ItemOID="IT.FA.DOMAIN" Value="FA"/>
      <ItemData ItemOID="IT.FA.USUBJID" Value="CDISC003"/>
      <ItemData ItemOID="IT.FA.FASEQ" Value="5"/>
      <ItemData ItemOID="IT.FA.FALNKGRP" Value="14"/>
      <ItemData ItemOID="IT.FA.FATESTCD" Value="OCCUR"/>
      <ItemData ItemOID="IT.FA.FATEST" Value="Occurrence Indicator"/>
      <ItemData ItemOID="IT.FA.FAOBJ" Value="PRURITIS"/>
      <ItemData ItemOID="IT.FA.FACAT" Value="INJECTION SITE REACTION"/>
      <ItemData ItemOID="IT.FA.FAORRES" Value="N"/>
      <ItemData ItemOID="IT.FA.FASTRESC" Value="N"/>
      <ItemData ItemOID="IT.FA.FALOC" Value="ARM"/>
      <ItemData ItemOID="IT.FA.EPOCH" Value="TREATMENT"/>
      <ItemData ItemOID="IT.FA.FADTC" Value="2013-10-15"/>
      <ItemData ItemOID="IT.FA.FADY" Value="48"/>
    </ItemGroupData>
    <ItemGroupData ItemGroupOID="IG.FA" data:ItemGroupDataSeq="24">
      <ItemData ItemOID="IT.FA.STUDYID" Value="CDISCPILOT01"/>
      <ItemData ItemOID="IT.FA.DOMAIN" Value="FA"/>
      <ItemData ItemOID="IT.FA.USUBJID" Value="CDISC003"/>
      <ItemData ItemOID="IT.FA.FASEQ" Value="6"/>
      <ItemData ItemOID="IT.FA.FALNKGRP" Value="14"/>
      <ItemData ItemOID="IT.FA.FATESTCD" Value="OCCUR"/>
      <ItemData ItemOID="IT.FA.FATEST" Value="Occurrence Indicator"/>
      <ItemData ItemOID="IT.FA.FAOBJ" Value="EDEMA"/>
      <ItemData ItemOID="IT.FA.FACAT" Value="INJECTION SITE REACTION"/>
      <ItemData ItemOID="IT.FA.FAORRES" Value="N"/>
      <ItemData ItemOID="IT.FA.FASTRESC" Value="N"/>
      <ItemData ItemOID="IT.FA.FALOC" Value="ARM"/>
      <ItemData ItemOID="IT.FA.EPOCH" Value="TREATMENT"/>
      <ItemData ItemOID="IT.FA.FADTC" Value="2013-10-15"/>
      <ItemData ItemOID="IT.FA.FADY" Value="48"/>
    </ItemGroupData>
    <ItemGroupData ItemGroupOID="IG.FA" data:ItemGroupDataSeq="25">
      <ItemData ItemOID="IT.FA.STUDYID" Value="CDISCPILOT01"/>
      <ItemData ItemOID="IT.FA.DOMAIN" Value="FA"/>
      <ItemData ItemOID="IT.FA.USUBJID" Value="CDISC005"/>
      <ItemData ItemOID="IT.FA.FASEQ" Value="1"/>
      <ItemData ItemOID="IT.FA.FALNKGRP" Value="1"/>
      <ItemData ItemOID="IT.FA.FATESTCD" Value="OCCUR"/>
      <ItemData ItemOID="IT.FA.FATEST" Value="Occurrence Indicator"/>
      <ItemData ItemOID="IT.FA.FAOBJ" Value="ERYTHEMA"/>
      <ItemData ItemOID="IT.FA.FACAT" Value="INJECTION SITE REACTION"/>
      <ItemData ItemOID="IT.FA.FAORRES" Value="N"/>
      <ItemData ItemOID="IT.FA.FASTRESC" Value="N"/>
      <ItemData ItemOID="IT.FA.FALOC" Value="ARM"/>
      <ItemData ItemOID="IT.FA.EPOCH" Value="TREATMENT"/>
      <ItemData ItemOID="IT.FA.FADTC" Value="2013-02-07"/>
      <ItemData ItemOID="IT.FA.FADY" Value="4"/>
    </ItemGroupData>
    <ItemGroupData ItemGroupOID="IG.FA" data:ItemGroupDataSeq="26">
      <ItemData ItemOID="IT.FA.STUDYID" Value="CDISCPILOT01"/>
      <ItemData ItemOID="IT.FA.DOMAIN" Value="FA"/>
      <ItemData ItemOID="IT.FA.USUBJID" Value="CDISC005"/>
      <ItemData ItemOID="IT.FA.FASEQ" Value="2"/>
      <ItemData ItemOID="IT.FA.FALNKGRP" Value="1"/>
      <ItemData ItemOID="IT.FA.FATESTCD" Value="OCCUR"/>
      <ItemData ItemOID="IT.FA.FATEST" Value="Occurrence Indicator"/>
      <ItemData ItemOID="IT.FA.FAOBJ" Value="PAIN"/>
      <ItemData ItemOID="IT.FA.FACAT" Value="INJECTION SITE REACTION"/>
      <ItemData ItemOID="IT.FA.FAORRES" Value="Y"/>
      <ItemData ItemOID="IT.FA.FASTRESC" Value="Y"/>
      <ItemData ItemOID="IT.FA.FALOC" Value="ARM"/>
      <ItemData ItemOID="IT.FA.EPOCH" Value="TREATMENT"/>
      <ItemData ItemOID="IT.FA.FADTC" Value="2013-02-07"/>
      <ItemData ItemOID="IT.FA.FADY" Value="4"/>
    </ItemGroupData>
    <ItemGroupData ItemGroupOID="IG.FA" data:ItemGroupDataSeq="27">
      <ItemData ItemOID="IT.FA.STUDYID" Value="CDISCPILOT01"/>
      <ItemData ItemOID="IT.FA.DOMAIN" Value="FA"/>
      <ItemData ItemOID="IT.FA.USUBJID" Value="CDISC005"/>
      <ItemData ItemOID="IT.FA.FASEQ" Value="3"/>
      <ItemData ItemOID="IT.FA.FALNKGRP" Value="1"/>
      <ItemData ItemOID="IT.FA.FATESTCD" Value="SEV"/>
      <ItemData ItemOID="IT.FA.FATEST" Value="Severity/Intensity"/>
      <ItemData ItemOID="IT.FA.FAOBJ" Value="PAIN"/>
      <ItemData ItemOID="IT.FA.FACAT" Value="INJECTION SITE REACTION"/>
      <ItemData ItemOID="IT.FA.FAORRES" Value="MILD"/>
      <ItemData ItemOID="IT.FA.FASTRESC" Value="MILD"/>
      <ItemData ItemOID="IT.FA.FALOC" Value="ARM"/>
      <ItemData ItemOID="IT.FA.EPOCH" Value="TREATMENT"/>
      <ItemData ItemOID="IT.FA.FADTC" Value="2013-02-07"/>
      <ItemData ItemOID="IT.FA.FADY" Value="4"/>
    </ItemGroupData>
    <ItemGroupData ItemGroupOID="IG.FA" data:ItemGroupDataSeq="28">
      <ItemData ItemOID="IT.FA.STUDYID" Value="CDISCPILOT01"/>
      <ItemData ItemOID="IT.FA.DOMAIN" Value="FA"/>
      <ItemData ItemOID="IT.FA.USUBJID" Value="CDISC005"/>
      <ItemData ItemOID="IT.FA.FASEQ" Value="4"/>
      <ItemData ItemOID="IT.FA.FALNKGRP" Value="1"/>
      <ItemData ItemOID="IT.FA.FATESTCD" Value="OCCUR"/>
      <ItemData ItemOID="IT.FA.FATEST" Value="Occurrence Indicator"/>
      <ItemData ItemOID="IT.FA.FAOBJ" Value="INDURATION"/>
      <ItemData ItemOID="IT.FA.FACAT" Value="INJECTION SITE REACTION"/>
      <ItemData ItemOID="IT.FA.FAORRES" Value="N"/>
      <ItemData ItemOID="IT.FA.FASTRESC" Value="N"/>
      <ItemData ItemOID="IT.FA.FALOC" Value="ARM"/>
      <ItemData ItemOID="IT.FA.EPOCH" Value="TREATMENT"/>
      <ItemData ItemOID="IT.FA.FADTC" Value="2013-02-07"/>
      <ItemData ItemOID="IT.FA.FADY" Value="4"/>
    </ItemGroupData>
    <ItemGroupData ItemGroupOID="IG.FA" data:ItemGroupDataSeq="29">
      <ItemData ItemOID="IT.FA.STUDYID" Value="CDISCPILOT01"/>
      <ItemData ItemOID="IT.FA.DOMAIN" Value="FA"/>
      <ItemData ItemOID="IT.FA.USUBJID" Value="CDISC005"/>
      <ItemData ItemOID="IT.FA.FASEQ" Value="5"/>
      <ItemData ItemOID="IT.FA.FALNKGRP" Value="1"/>
      <ItemData ItemOID="IT.FA.FATESTCD" Value="OCCUR"/>
      <ItemData ItemOID="IT.FA.FATEST" Value="Occurrence Indicator"/>
      <ItemData ItemOID="IT.FA.FAOBJ" Value="PRURITIS"/>
      <ItemData ItemOID="IT.FA.FACAT" Value="INJECTION SITE REACTION"/>
      <ItemData ItemOID="IT.FA.FAORRES" Value="N"/>
      <ItemData ItemOID="IT.FA.FASTRESC" Value="N"/>
      <ItemData ItemOID="IT.FA.FALOC" Value="ARM"/>
      <ItemData ItemOID="IT.FA.EPOCH" Value="TREATMENT"/>
      <ItemData ItemOID="IT.FA.FADTC" Value="2013-02-07"/>
      <ItemData ItemOID="IT.FA.FADY" Value="4"/>
    </ItemGroupData>
    <ItemGroupData ItemGroupOID="IG.FA" data:ItemGroupDataSeq="30">
      <ItemData ItemOID="IT.FA.STUDYID" Value="CDISCPILOT01"/>
      <ItemData ItemOID="IT.FA.DOMAIN" Value="FA"/>
      <ItemData ItemOID="IT.FA.USUBJID" Value="CDISC005"/>
      <ItemData ItemOID="IT.FA.FASEQ" Value="6"/>
      <ItemData ItemOID="IT.FA.FALNKGRP" Value="1"/>
      <ItemData ItemOID="IT.FA.FATESTCD" Value="OCCUR"/>
      <ItemData ItemOID="IT.FA.FATEST" Value="Occurrence Indicator"/>
      <ItemData ItemOID="IT.FA.FAOBJ" Value="EDEMA"/>
      <ItemData ItemOID="IT.FA.FACAT" Value="INJECTION SITE REACTION"/>
      <ItemData ItemOID="IT.FA.FAORRES" Value="N"/>
      <ItemData ItemOID="IT.FA.FASTRESC" Value="N"/>
      <ItemData ItemOID="IT.FA.FALOC" Value="ARM"/>
      <ItemData ItemOID="IT.FA.EPOCH" Value="TREATMENT"/>
      <ItemData ItemOID="IT.FA.FADTC" Value="2013-02-07"/>
      <ItemData ItemOID="IT.FA.FADY" Value="4"/>
    </ItemGroupData>
    <ItemGroupData ItemGroupOID="IG.FA" data:ItemGroupDataSeq="31">
      <ItemData ItemOID="IT.FA.STUDYID" Value="CDISCPILOT01"/>
      <ItemData ItemOID="IT.FA.DOMAIN" Value="FA"/>
      <ItemData ItemOID="IT.FA.USUBJID" Value="CDISC005"/>
      <ItemData ItemOID="IT.FA.FASEQ" Value="7"/>
      <ItemData ItemOID="IT.FA.FALNKGRP" Value="2"/>
      <ItemData ItemOID="IT.FA.FATESTCD" Value="OCCUR"/>
      <ItemData ItemOID="IT.FA.FATEST" Value="Occurrence Indicator"/>
      <ItemData ItemOID="IT.FA.FAOBJ" Value="ERYTHEMA"/>
      <ItemData ItemOID="IT.FA.FACAT" Value="INJECTION SITE REACTION"/>
      <ItemData ItemOID="IT.FA.FAORRES" Value="N"/>
      <ItemData ItemOID="IT.FA.FASTRESC" Value="N"/>
      <ItemData ItemOID="IT.FA.FALOC" Value="ARM"/>
      <ItemData ItemOID="IT.FA.EPOCH" Value="TREATMENT"/>
      <ItemData ItemOID="IT.FA.FADTC" Value="2013-03-23"/>
      <ItemData ItemOID="IT.FA.FADY" Value="48"/>
    </ItemGroupData>
    <ItemGroupData ItemGroupOID="IG.FA" data:ItemGroupDataSeq="32">
      <ItemData ItemOID="IT.FA.STUDYID" Value="CDISCPILOT01"/>
      <ItemData ItemOID="IT.FA.DOMAIN" Value="FA"/>
      <ItemData ItemOID="IT.FA.USUBJID" Value="CDISC005"/>
      <ItemData ItemOID="IT.FA.FASEQ" Value="8"/>
      <ItemData ItemOID="IT.FA.FALNKGRP" Value="2"/>
      <ItemData ItemOID="IT.FA.FATESTCD" Value="OCCUR"/>
      <ItemData ItemOID="IT.FA.FATEST" Value="Occurrence Indicator"/>
      <ItemData ItemOID="IT.FA.FAOBJ" Value="PAIN"/>
      <ItemData ItemOID="IT.FA.FACAT" Value="INJECTION SITE REACTION"/>
      <ItemData ItemOID="IT.FA.FAORRES" Value="N"/>
      <ItemData ItemOID="IT.FA.FASTRESC" Value="N"/>
      <ItemData ItemOID="IT.FA.FALOC" Value="ARM"/>
      <ItemData ItemOID="IT.FA.EPOCH" Value="TREATMENT"/>
      <ItemData ItemOID="IT.FA.FADTC" Value="2013-03-23"/>
      <ItemData ItemOID="IT.FA.FADY" Value="48"/>
    </ItemGroupData>
    <ItemGroupData ItemGroupOID="IG.FA" data:ItemGroupDataSeq="33">
      <ItemData ItemOID="IT.FA.STUDYID" Value="CDISCPILOT01"/>
      <ItemData ItemOID="IT.FA.DOMAIN" Value="FA"/>
      <ItemData ItemOID="IT.FA.USUBJID" Value="CDISC005"/>
      <ItemData ItemOID="IT.FA.FASEQ" Value="9"/>
      <ItemData ItemOID="IT.FA.FALNKGRP" Value="2"/>
      <ItemData ItemOID="IT.FA.FATESTCD" Value="OCCUR"/>
      <ItemData ItemOID="IT.FA.FATEST" Value="Occurrence Indicator"/>
      <ItemData ItemOID="IT.FA.FAOBJ" Value="INDURATION"/>
      <ItemData ItemOID="IT.FA.FACAT" Value="INJECTION SITE REACTION"/>
      <ItemData ItemOID="IT.FA.FAORRES" Value="N"/>
      <ItemData ItemOID="IT.FA.FASTRESC" Value="N"/>
      <ItemData ItemOID="IT.FA.FALOC" Value="ARM"/>
      <ItemData ItemOID="IT.FA.EPOCH" Value="TREATMENT"/>
      <ItemData ItemOID="IT.FA.FADTC" Value="2013-03-23"/>
      <ItemData ItemOID="IT.FA.FADY" Value="48"/>
    </ItemGroupData>
    <ItemGroupData ItemGroupOID="IG.FA" data:ItemGroupDataSeq="34">
      <ItemData ItemOID="IT.FA.STUDYID" Value="CDISCPILOT01"/>
      <ItemData ItemOID="IT.FA.DOMAIN" Value="FA"/>
      <ItemData ItemOID="IT.FA.USUBJID" Value="CDISC005"/>
      <ItemData ItemOID="IT.FA.FASEQ" Value="10"/>
      <ItemData ItemOID="IT.FA.FALNKGRP" Value="2"/>
      <ItemData ItemOID="IT.FA.FATESTCD" Value="OCCUR"/>
      <ItemData ItemOID="IT.FA.FATEST" Value="Occurrence Indicator"/>
      <ItemData ItemOID="IT.FA.FAOBJ" Value="PRURITIS"/>
      <ItemData ItemOID="IT.FA.FACAT" Value="INJECTION SITE REACTION"/>
      <ItemData ItemOID="IT.FA.FAORRES" Value="Y"/>
      <ItemData ItemOID="IT.FA.FASTRESC" Value="Y"/>
      <ItemData ItemOID="IT.FA.FALOC" Value="ARM"/>
      <ItemData ItemOID="IT.FA.EPOCH" Value="TREATMENT"/>
      <ItemData ItemOID="IT.FA.FADTC" Value="2013-03-23"/>
      <ItemData ItemOID="IT.FA.FADY" Value="48"/>
    </ItemGroupData>
    <ItemGroupData ItemGroupOID="IG.FA" data:ItemGroupDataSeq="35">
      <ItemData ItemOID="IT.FA.STUDYID" Value="CDISCPILOT01"/>
      <ItemData ItemOID="IT.FA.DOMAIN" Value="FA"/>
      <ItemData ItemOID="IT.FA.USUBJID" Value="CDISC005"/>
      <ItemData ItemOID="IT.FA.FASEQ" Value="11"/>
      <ItemData ItemOID="IT.FA.FALNKGRP" Value="2"/>
      <ItemData ItemOID="IT.FA.FATESTCD" Value="SEV"/>
      <ItemData ItemOID="IT.FA.FATEST" Value="Severity/Intensity"/>
      <ItemData ItemOID="IT.FA.FAOBJ" Value="PRURITIS"/>
      <ItemData ItemOID="IT.FA.FACAT" Value="INJECTION SITE REACTION"/>
      <ItemData ItemOID="IT.FA.FAORRES" Value="MILD"/>
      <ItemData ItemOID="IT.FA.FASTRESC" Value="MILD"/>
      <ItemData ItemOID="IT.FA.FALOC" Value="ARM"/>
      <ItemData ItemOID="IT.FA.EPOCH" Value="TREATMENT"/>
      <ItemData ItemOID="IT.FA.FADTC" Value="2013-03-23"/>
      <ItemData ItemOID="IT.FA.FADY" Value="48"/>
    </ItemGroupData>
    <ItemGroupData ItemGroupOID="IG.FA" data:ItemGroupDataSeq="36">
      <ItemData ItemOID="IT.FA.STUDYID" Value="CDISCPILOT01"/>
      <ItemData ItemOID="IT.FA.DOMAIN" Value="FA"/>
      <ItemData ItemOID="IT.FA.USUBJID" Value="CDISC005"/>
      <ItemData ItemOID="IT.FA.FASEQ" Value="12"/>
      <ItemData ItemOID="IT.FA.FALNKGRP" Value="2"/>
      <ItemData ItemOID="IT.FA.FATESTCD" Value="OCCUR"/>
      <ItemData ItemOID="IT.FA.FATEST" Value="Occurrence Indicator"/>
      <ItemData ItemOID="IT.FA.FAOBJ" Value="EDEMA"/>
      <ItemData ItemOID="IT.FA.FACAT" Value="INJECTION SITE REACTION"/>
      <ItemData ItemOID="IT.FA.FAORRES" Value="N"/>
      <ItemData ItemOID="IT.FA.FASTRESC" Value="N"/>
      <ItemData ItemOID="IT.FA.FALOC" Value="ARM"/>
      <ItemData ItemOID="IT.FA.EPOCH" Value="TREATMENT"/>
      <ItemData ItemOID="IT.FA.FADTC" Value="2013-03-23"/>
      <ItemData ItemOID="IT.FA.FADY" Value="48"/>
    </ItemGroupData>
    <ItemGroupData ItemGroupOID="IG.FA" data:ItemGroupDataSeq="37">
      <ItemData ItemOID="IT.FA.STUDYID" Value="CDISCPILOT01"/>
      <ItemData ItemOID="IT.FA.DOMAIN" Value="FA"/>
      <ItemData ItemOID="IT.FA.USUBJID" Value="CDISC005"/>
      <ItemData ItemOID="IT.FA.FASEQ" Value="13"/>
      <ItemData ItemOID="IT.FA.FALNKGRP" Value="4"/>
      <ItemData ItemOID="IT.FA.FATESTCD" Value="OCCUR"/>
      <ItemData ItemOID="IT.FA.FATEST" Value="Occurrence Indicator"/>
      <ItemData ItemOID="IT.FA.FAOBJ" Value="ERYTHEMA"/>
      <ItemData ItemOID="IT.FA.FACAT" Value="INJECTION SITE REACTION"/>
      <ItemData ItemOID="IT.FA.FAORRES" Value="Y"/>
      <ItemData ItemOID="IT.FA.FASTRESC" Value="Y"/>
      <ItemData ItemOID="IT.FA.FALOC" Value="ARM"/>
      <ItemData ItemOID="IT.FA.EPOCH" Value="TREATMENT"/>
      <ItemData ItemOID="IT.FA.FADTC" Value="2013-03-23"/>
      <ItemData ItemOID="IT.FA.FADY" Value="48"/>
    </ItemGroupData>
    <ItemGroupData ItemGroupOID="IG.FA" data:ItemGroupDataSeq="38">
      <ItemData ItemOID="IT.FA.STUDYID" Value="CDISCPILOT01"/>
      <ItemData ItemOID="IT.FA.DOMAIN" Value="FA"/>
      <ItemData ItemOID="IT.FA.USUBJID" Value="CDISC005"/>
      <ItemData ItemOID="IT.FA.FASEQ" Value="14"/>
      <ItemData ItemOID="IT.FA.FALNKGRP" Value="4"/>
      <ItemData ItemOID="IT.FA.FATESTCD" Value="SEV"/>
      <ItemData ItemOID="IT.FA.FATEST" Value="Severity/Intensity"/>
      <ItemData ItemOID="IT.FA.FAOBJ" Value="ERYTHEMA"/>
      <ItemData ItemOID="IT.FA.FACAT" Value="INJECTION SITE REACTION"/>
      <ItemData ItemOID="IT.FA.FAORRES" Value="MILD"/>
      <ItemData ItemOID="IT.FA.FASTRESC" Value="MILD"/>
      <ItemData ItemOID="IT.FA.FALOC" Value="ARM"/>
      <ItemData ItemOID="IT.FA.EPOCH" Value="TREATMENT"/>
      <ItemData ItemOID="IT.FA.FADTC" Value="2013-03-23"/>
      <ItemData ItemOID="IT.FA.FADY" Value="48"/>
    </ItemGroupData>
    <ItemGroupData ItemGroupOID="IG.FA" data:ItemGroupDataSeq="39">
      <ItemData ItemOID="IT.FA.STUDYID" Value="CDISCPILOT01"/>
      <ItemData ItemOID="IT.FA.DOMAIN" Value="FA"/>
      <ItemData ItemOID="IT.FA.USUBJID" Value="CDISC005"/>
      <ItemData ItemOID="IT.FA.FASEQ" Value="15"/>
      <ItemData ItemOID="IT.FA.FALNKGRP" Value="4"/>
      <ItemData ItemOID="IT.FA.FATESTCD" Value="OCCUR"/>
      <ItemData ItemOID="IT.FA.FATEST" Value="Occurrence Indicator"/>
      <ItemData ItemOID="IT.FA.FAOBJ" Value="PAIN"/>
      <ItemData ItemOID="IT.FA.FACAT" Value="INJECTION SITE REACTION"/>
      <ItemData ItemOID="IT.FA.FAORRES" Value="N"/>
      <ItemData ItemOID="IT.FA.FASTRESC" Value="N"/>
      <ItemData ItemOID="IT.FA.FALOC" Value="ARM"/>
      <ItemData ItemOID="IT.FA.EPOCH" Value="TREATMENT"/>
      <ItemData ItemOID="IT.FA.FADTC" Value="2013-03-23"/>
      <ItemData ItemOID="IT.FA.FADY" Value="48"/>
    </ItemGroupData>
    <ItemGroupData ItemGroupOID="IG.FA" data:ItemGroupDataSeq="40">
      <ItemData ItemOID="IT.FA.STUDYID" Value="CDISCPILOT01"/>
      <ItemData ItemOID="IT.FA.DOMAIN" Value="FA"/>
      <ItemData ItemOID="IT.FA.USUBJID" Value="CDISC005"/>
      <ItemData ItemOID="IT.FA.FASEQ" Value="16"/>
      <ItemData ItemOID="IT.FA.FALNKGRP" Value="4"/>
      <ItemData ItemOID="IT.FA.FATESTCD" Value="OCCUR"/>
      <ItemData ItemOID="IT.FA.FATEST" Value="Occurrence Indicator"/>
      <ItemData ItemOID="IT.FA.FAOBJ" Value="INDURATION"/>
      <ItemData ItemOID="IT.FA.FACAT" Value="INJECTION SITE REACTION"/>
      <ItemData ItemOID="IT.FA.FAORRES" Value="N"/>
      <ItemData ItemOID="IT.FA.FASTRESC" Value="N"/>
      <ItemData ItemOID="IT.FA.FALOC" Value="ARM"/>
      <ItemData ItemOID="IT.FA.EPOCH" Value="TREATMENT"/>
      <ItemData ItemOID="IT.FA.FADTC" Value="2013-03-23"/>
      <ItemData ItemOID="IT.FA.FADY" Value="48"/>
    </ItemGroupData>
    <ItemGroupData ItemGroupOID="IG.FA" data:ItemGroupDataSeq="41">
      <ItemData ItemOID="IT.FA.STUDYID" Value="CDISCPILOT01"/>
      <ItemData ItemOID="IT.FA.DOMAIN" Value="FA"/>
      <ItemData ItemOID="IT.FA.USUBJID" Value="CDISC005"/>
      <ItemData ItemOID="IT.FA.FASEQ" Value="17"/>
      <ItemData ItemOID="IT.FA.FALNKGRP" Value="4"/>
      <ItemData ItemOID="IT.FA.FATESTCD" Value="OCCUR"/>
      <ItemData ItemOID="IT.FA.FATEST" Value="Occurrence Indicator"/>
      <ItemData ItemOID="IT.FA.FAOBJ" Value="PRURITIS"/>
      <ItemData ItemOID="IT.FA.FACAT" Value="INJECTION SITE REACTION"/>
      <ItemData ItemOID="IT.FA.FAORRES" Value="N"/>
      <ItemData ItemOID="IT.FA.FASTRESC" Value="N"/>
      <ItemData ItemOID="IT.FA.FALOC" Value="ARM"/>
      <ItemData ItemOID="IT.FA.EPOCH" Value="TREATMENT"/>
      <ItemData ItemOID="IT.FA.FADTC" Value="2013-03-23"/>
      <ItemData ItemOID="IT.FA.FADY" Value="48"/>
    </ItemGroupData>
    <ItemGroupData ItemGroupOID="IG.FA" data:ItemGroupDataSeq="42">
      <ItemData ItemOID="IT.FA.STUDYID" Value="CDISCPILOT01"/>
      <ItemData ItemOID="IT.FA.DOMAIN" Value="FA"/>
      <ItemData ItemOID="IT.FA.USUBJID" Value="CDISC005"/>
      <ItemData ItemOID="IT.FA.FASEQ" Value="18"/>
      <ItemData ItemOID="IT.FA.FALNKGRP" Value="4"/>
      <ItemData ItemOID="IT.FA.FATESTCD" Value="OCCUR"/>
      <ItemData ItemOID="IT.FA.FATEST" Value="Occurrence Indicator"/>
      <ItemData ItemOID="IT.FA.FAOBJ" Value="EDEMA"/>
      <ItemData ItemOID="IT.FA.FACAT" Value="INJECTION SITE REACTION"/>
      <ItemData ItemOID="IT.FA.FAORRES" Value="N"/>
      <ItemData ItemOID="IT.FA.FASTRESC" Value="N"/>
      <ItemData ItemOID="IT.FA.FALOC" Value="ARM"/>
      <ItemData ItemOID="IT.FA.EPOCH" Value="TREATMENT"/>
      <ItemData ItemOID="IT.FA.FADTC" Value="2013-03-23"/>
      <ItemData ItemOID="IT.FA.FADY" Value="48"/>
    </ItemGroupData>
    <ItemGroupData ItemGroupOID="IG.FA" data:ItemGroupDataSeq="43">
      <ItemData ItemOID="IT.FA.STUDYID" Value="CDISCPILOT01"/>
      <ItemData ItemOID="IT.FA.DOMAIN" Value="FA"/>
      <ItemData ItemOID="IT.FA.USUBJID" Value="CDISC005"/>
      <ItemData ItemOID="IT.FA.FASEQ" Value="19"/>
      <ItemData ItemOID="IT.FA.FALNKGRP" Value="5"/>
      <ItemData ItemOID="IT.FA.FATESTCD" Value="OCCUR"/>
      <ItemData ItemOID="IT.FA.FATEST" Value="Occurrence Indicator"/>
      <ItemData ItemOID="IT.FA.FAOBJ" Value="ERYTHEMA"/>
      <ItemData ItemOID="IT.FA.FACAT" Value="INJECTION SITE REACTION"/>
      <ItemData ItemOID="IT.FA.FAORRES" Value="Y"/>
      <ItemData ItemOID="IT.FA.FASTRESC" Value="Y"/>
      <ItemData ItemOID="IT.FA.FALOC" Value="ARM"/>
      <ItemData ItemOID="IT.FA.EPOCH" Value="TREATMENT"/>
      <ItemData ItemOID="IT.FA.FADTC" Value="2013-04-12"/>
      <ItemData ItemOID="IT.FA.FADY" Value="68"/>
    </ItemGroupData>
    <ItemGroupData ItemGroupOID="IG.FA" data:ItemGroupDataSeq="44">
      <ItemData ItemOID="IT.FA.STUDYID" Value="CDISCPILOT01"/>
      <ItemData ItemOID="IT.FA.DOMAIN" Value="FA"/>
      <ItemData ItemOID="IT.FA.USUBJID" Value="CDISC005"/>
      <ItemData ItemOID="IT.FA.FASEQ" Value="20"/>
      <ItemData ItemOID="IT.FA.FALNKGRP" Value="5"/>
      <ItemData ItemOID="IT.FA.FATESTCD" Value="SEV"/>
      <ItemData ItemOID="IT.FA.FATEST" Value="Severity/Intensity"/>
      <ItemData ItemOID="IT.FA.FAOBJ" Value="ERYTHEMA"/>
      <ItemData ItemOID="IT.FA.FACAT" Value="INJECTION SITE REACTION"/>
      <ItemData ItemOID="IT.FA.FAORRES" Value="MILD"/>
      <ItemData ItemOID="IT.FA.FASTRESC" Value="MILD"/>
      <ItemData ItemOID="IT.FA.FALOC" Value="ARM"/>
      <ItemData ItemOID="IT.FA.EPOCH" Value="TREATMENT"/>
      <ItemData ItemOID="IT.FA.FADTC" Value="2013-04-12"/>
      <ItemData ItemOID="IT.FA.FADY" Value="68"/>
    </ItemGroupData>
    <ItemGroupData ItemGroupOID="IG.FA" data:ItemGroupDataSeq="45">
      <ItemData ItemOID="IT.FA.STUDYID" Value="CDISCPILOT01"/>
      <ItemData ItemOID="IT.FA.DOMAIN" Value="FA"/>
      <ItemData ItemOID="IT.FA.USUBJID" Value="CDISC005"/>
      <ItemData ItemOID="IT.FA.FASEQ" Value="21"/>
      <ItemData ItemOID="IT.FA.FALNKGRP" Value="5"/>
      <ItemData ItemOID="IT.FA.FATESTCD" Value="OCCUR"/>
      <ItemData ItemOID="IT.FA.FATEST" Value="Occurrence Indicator"/>
      <ItemData ItemOID="IT.FA.FAOBJ" Value="PAIN"/>
      <ItemData ItemOID="IT.FA.FACAT" Value="INJECTION SITE REACTION"/>
      <ItemData ItemOID="IT.FA.FAORRES" Value="N"/>
      <ItemData ItemOID="IT.FA.FASTRESC" Value="N"/>
      <ItemData ItemOID="IT.FA.FALOC" Value="ARM"/>
      <ItemData ItemOID="IT.FA.EPOCH" Value="TREATMENT"/>
      <ItemData ItemOID="IT.FA.FADTC" Value="2013-04-12"/>
      <ItemData ItemOID="IT.FA.FADY" Value="68"/>
    </ItemGroupData>
    <ItemGroupData ItemGroupOID="IG.FA" data:ItemGroupDataSeq="46">
      <ItemData ItemOID="IT.FA.STUDYID" Value="CDISCPILOT01"/>
      <ItemData ItemOID="IT.FA.DOMAIN" Value="FA"/>
      <ItemData ItemOID="IT.FA.USUBJID" Value="CDISC005"/>
      <ItemData ItemOID="IT.FA.FASEQ" Value="22"/>
      <ItemData ItemOID="IT.FA.FALNKGRP" Value="5"/>
      <ItemData ItemOID="IT.FA.FATESTCD" Value="OCCUR"/>
      <ItemData ItemOID="IT.FA.FATEST" Value="Occurrence Indicator"/>
      <ItemData ItemOID="IT.FA.FAOBJ" Value="INDURATION"/>
      <ItemData ItemOID="IT.FA.FACAT" Value="INJECTION SITE REACTION"/>
      <ItemData ItemOID="IT.FA.FAORRES" Value="N"/>
      <ItemData ItemOID="IT.FA.FASTRESC" Value="N"/>
      <ItemData ItemOID="IT.FA.FALOC" Value="ARM"/>
      <ItemData ItemOID="IT.FA.EPOCH" Value="TREATMENT"/>
      <ItemData ItemOID="IT.FA.FADTC" Value="2013-04-12"/>
      <ItemData ItemOID="IT.FA.FADY" Value="68"/>
    </ItemGroupData>
    <ItemGroupData ItemGroupOID="IG.FA" data:ItemGroupDataSeq="47">
      <ItemData ItemOID="IT.FA.STUDYID" Value="CDISCPILOT01"/>
      <ItemData ItemOID="IT.FA.DOMAIN" Value="FA"/>
      <ItemData ItemOID="IT.FA.USUBJID" Value="CDISC005"/>
      <ItemData ItemOID="IT.FA.FASEQ" Value="23"/>
      <ItemData ItemOID="IT.FA.FALNKGRP" Value="5"/>
      <ItemData ItemOID="IT.FA.FATESTCD" Value="OCCUR"/>
      <ItemData ItemOID="IT.FA.FATEST" Value="Occurrence Indicator"/>
      <ItemData ItemOID="IT.FA.FAOBJ" Value="PRURITIS"/>
      <ItemData ItemOID="IT.FA.FACAT" Value="INJECTION SITE REACTION"/>
      <ItemData ItemOID="IT.FA.FAORRES" Value="N"/>
      <ItemData ItemOID="IT.FA.FASTRESC" Value="N"/>
      <ItemData ItemOID="IT.FA.FALOC" Value="ARM"/>
      <ItemData ItemOID="IT.FA.EPOCH" Value="TREATMENT"/>
      <ItemData ItemOID="IT.FA.FADTC" Value="2013-04-12"/>
      <ItemData ItemOID="IT.FA.FADY" Value="68"/>
    </ItemGroupData>
    <ItemGroupData ItemGroupOID="IG.FA" data:ItemGroupDataSeq="48">
      <ItemData ItemOID="IT.FA.STUDYID" Value="CDISCPILOT01"/>
      <ItemData ItemOID="IT.FA.DOMAIN" Value="FA"/>
      <ItemData ItemOID="IT.FA.USUBJID" Value="CDISC005"/>
      <ItemData ItemOID="IT.FA.FASEQ" Value="24"/>
      <ItemData ItemOID="IT.FA.FALNKGRP" Value="5"/>
      <ItemData ItemOID="IT.FA.FATESTCD" Value="OCCUR"/>
      <ItemData ItemOID="IT.FA.FATEST" Value="Occurrence Indicator"/>
      <ItemData ItemOID="IT.FA.FAOBJ" Value="EDEMA"/>
      <ItemData ItemOID="IT.FA.FACAT" Value="INJECTION SITE REACTION"/>
      <ItemData ItemOID="IT.FA.FAORRES" Value="N"/>
      <ItemData ItemOID="IT.FA.FASTRESC" Value="N"/>
      <ItemData ItemOID="IT.FA.FALOC" Value="ARM"/>
      <ItemData ItemOID="IT.FA.EPOCH" Value="TREATMENT"/>
      <ItemData ItemOID="IT.FA.FADTC" Value="2013-04-12"/>
      <ItemData ItemOID="IT.FA.FADY" Value="68"/>
    </ItemGroupData>
    <ItemGroupData ItemGroupOID="IG.FA" data:ItemGroupDataSeq="49">
      <ItemData ItemOID="IT.FA.STUDYID" Value="CDISCPILOT01"/>
      <ItemData ItemOID="IT.FA.DOMAIN" Value="FA"/>
      <ItemData ItemOID="IT.FA.USUBJID" Value="CDISC011"/>
      <ItemData ItemOID="IT.FA.FASEQ" Value="1"/>
      <ItemData ItemOID="IT.FA.FALNKGRP" Value="4"/>
      <ItemData ItemOID="IT.FA.FATESTCD" Value="OCCUR"/>
      <ItemData ItemOID="IT.FA.FATEST" Value="Occurrence Indicator"/>
      <ItemData ItemOID="IT.FA.FAOBJ" Value="ERYTHEMA"/>
      <ItemData ItemOID="IT.FA.FACAT" Value="INJECTION SITE REACTION"/>
      <ItemData ItemOID="IT.FA.FAORRES" Value="Y"/>
      <ItemData ItemOID="IT.FA.FASTRESC" Value="Y"/>
      <ItemData ItemOID="IT.FA.FALOC" Value="ARM"/>
      <ItemData ItemOID="IT.FA.EPOCH" Value="TREATMENT"/>
      <ItemData ItemOID="IT.FA.FADTC" Value="2013-04-10"/>
      <ItemData ItemOID="IT.FA.FADY" Value="125"/>
    </ItemGroupData>
    <ItemGroupData ItemGroupOID="IG.FA" data:ItemGroupDataSeq="50">
      <ItemData ItemOID="IT.FA.STUDYID" Value="CDISCPILOT01"/>
      <ItemData ItemOID="IT.FA.DOMAIN" Value="FA"/>
      <ItemData ItemOID="IT.FA.USUBJID" Value="CDISC011"/>
      <ItemData ItemOID="IT.FA.FASEQ" Value="2"/>
      <ItemData ItemOID="IT.FA.FALNKGRP" Value="4"/>
      <ItemData ItemOID="IT.FA.FATESTCD" Value="SEV"/>
      <ItemData ItemOID="IT.FA.FATEST" Value="Severity/Intensity"/>
      <ItemData ItemOID="IT.FA.FAOBJ" Value="ERYTHEMA"/>
      <ItemData ItemOID="IT.FA.FACAT" Value="INJECTION SITE REACTION"/>
      <ItemData ItemOID="IT.FA.FAORRES" Value="MILD"/>
      <ItemData ItemOID="IT.FA.FASTRESC" Value="MILD"/>
      <ItemData ItemOID="IT.FA.FALOC" Value="ARM"/>
      <ItemData ItemOID="IT.FA.EPOCH" Value="TREATMENT"/>
      <ItemData ItemOID="IT.FA.FADTC" Value="2013-04-10"/>
      <ItemData ItemOID="IT.FA.FADY" Value="125"/>
    </ItemGroupData>
    <ItemGroupData ItemGroupOID="IG.FA" data:ItemGroupDataSeq="51">
      <ItemData ItemOID="IT.FA.STUDYID" Value="CDISCPILOT01"/>
      <ItemData ItemOID="IT.FA.DOMAIN" Value="FA"/>
      <ItemData ItemOID="IT.FA.USUBJID" Value="CDISC011"/>
      <ItemData ItemOID="IT.FA.FASEQ" Value="3"/>
      <ItemData ItemOID="IT.FA.FALNKGRP" Value="4"/>
      <ItemData ItemOID="IT.FA.FATESTCD" Value="OCCUR"/>
      <ItemData ItemOID="IT.FA.FATEST" Value="Occurrence Indicator"/>
      <ItemData ItemOID="IT.FA.FAOBJ" Value="PAIN"/>
      <ItemData ItemOID="IT.FA.FACAT" Value="INJECTION SITE REACTION"/>
      <ItemData ItemOID="IT.FA.FAORRES" Value="N"/>
      <ItemData ItemOID="IT.FA.FASTRESC" Value="N"/>
      <ItemData ItemOID="IT.FA.FALOC" Value="ARM"/>
      <ItemData ItemOID="IT.FA.EPOCH" Value="TREATMENT"/>
      <ItemData ItemOID="IT.FA.FADTC" Value="2013-04-10"/>
      <ItemData ItemOID="IT.FA.FADY" Value="125"/>
    </ItemGroupData>
    <ItemGroupData ItemGroupOID="IG.FA" data:ItemGroupDataSeq="52">
      <ItemData ItemOID="IT.FA.STUDYID" Value="CDISCPILOT01"/>
      <ItemData ItemOID="IT.FA.DOMAIN" Value="FA"/>
      <ItemData ItemOID="IT.FA.USUBJID" Value="CDISC011"/>
      <ItemData ItemOID="IT.FA.FASEQ" Value="4"/>
      <ItemData ItemOID="IT.FA.FALNKGRP" Value="4"/>
      <ItemData ItemOID="IT.FA.FATESTCD" Value="OCCUR"/>
      <ItemData ItemOID="IT.FA.FATEST" Value="Occurrence Indicator"/>
      <ItemData ItemOID="IT.FA.FAOBJ" Value="INDURATION"/>
      <ItemData ItemOID="IT.FA.FACAT" Value="INJECTION SITE REACTION"/>
      <ItemData ItemOID="IT.FA.FAORRES" Value="N"/>
      <ItemData ItemOID="IT.FA.FASTRESC" Value="N"/>
      <ItemData ItemOID="IT.FA.FALOC" Value="ARM"/>
      <ItemData ItemOID="IT.FA.EPOCH" Value="TREATMENT"/>
      <ItemData ItemOID="IT.FA.FADTC" Value="2013-04-10"/>
      <ItemData ItemOID="IT.FA.FADY" Value="125"/>
    </ItemGroupData>
    <ItemGroupData ItemGroupOID="IG.FA" data:ItemGroupDataSeq="53">
      <ItemData ItemOID="IT.FA.STUDYID" Value="CDISCPILOT01"/>
      <ItemData ItemOID="IT.FA.DOMAIN" Value="FA"/>
      <ItemData ItemOID="IT.FA.USUBJID" Value="CDISC011"/>
      <ItemData ItemOID="IT.FA.FASEQ" Value="5"/>
      <ItemData ItemOID="IT.FA.FALNKGRP" Value="4"/>
      <ItemData ItemOID="IT.FA.FATESTCD" Value="OCCUR"/>
      <ItemData ItemOID="IT.FA.FATEST" Value="Occurrence Indicator"/>
      <ItemData ItemOID="IT.FA.FAOBJ" Value="PRURITIS"/>
      <ItemData ItemOID="IT.FA.FACAT" Value="INJECTION SITE REACTION"/>
      <ItemData ItemOID="IT.FA.FAORRES" Value="N"/>
      <ItemData ItemOID="IT.FA.FASTRESC" Value="N"/>
      <ItemData ItemOID="IT.FA.FALOC" Value="ARM"/>
      <ItemData ItemOID="IT.FA.EPOCH" Value="TREATMENT"/>
      <ItemData ItemOID="IT.FA.FADTC" Value="2013-04-10"/>
      <ItemData ItemOID="IT.FA.FADY" Value="125"/>
    </ItemGroupData>
    <ItemGroupData ItemGroupOID="IG.FA" data:ItemGroupDataSeq="54">
      <ItemData ItemOID="IT.FA.STUDYID" Value="CDISCPILOT01"/>
      <ItemData ItemOID="IT.FA.DOMAIN" Value="FA"/>
      <ItemData ItemOID="IT.FA.USUBJID" Value="CDISC011"/>
      <ItemData ItemOID="IT.FA.FASEQ" Value="6"/>
      <ItemData ItemOID="IT.FA.FALNKGRP" Value="4"/>
      <ItemData ItemOID="IT.FA.FATESTCD" Value="OCCUR"/>
      <ItemData ItemOID="IT.FA.FATEST" Value="Occurrence Indicator"/>
      <ItemData ItemOID="IT.FA.FAOBJ" Value="EDEMA"/>
      <ItemData ItemOID="IT.FA.FACAT" Value="INJECTION SITE REACTION"/>
      <ItemData ItemOID="IT.FA.FAORRES" Value="N"/>
      <ItemData ItemOID="IT.FA.FASTRESC" Value="N"/>
      <ItemData ItemOID="IT.FA.FALOC" Value="ARM"/>
      <ItemData ItemOID="IT.FA.EPOCH" Value="TREATMENT"/>
      <ItemData ItemOID="IT.FA.FADTC" Value="2013-04-10"/>
      <ItemData ItemOID="IT.FA.FADY" Value="125"/>
    </ItemGroupData>
    <ItemGroupData ItemGroupOID="IG.FA" data:ItemGroupDataSeq="55">
      <ItemData ItemOID="IT.FA.STUDYID" Value="CDISCPILOT01"/>
      <ItemData ItemOID="IT.FA.DOMAIN" Value="FA"/>
      <ItemData ItemOID="IT.FA.USUBJID" Value="CDISC011"/>
      <ItemData ItemOID="IT.FA.FASEQ" Value="7"/>
      <ItemData ItemOID="IT.FA.FALNKGRP" Value="2"/>
      <ItemData ItemOID="IT.FA.FATESTCD" Value="OCCUR"/>
      <ItemData ItemOID="IT.FA.FATEST" Value="Occurrence Indicator"/>
      <ItemData ItemOID="IT.FA.FAOBJ" Value="ERYTHEMA"/>
      <ItemData ItemOID="IT.FA.FACAT" Value="INJECTION SITE REACTION"/>
      <ItemData ItemOID="IT.FA.FAORRES" Value="N"/>
      <ItemData ItemOID="IT.FA.FASTRESC" Value="N"/>
      <ItemData ItemOID="IT.FA.FALOC" Value="ARM"/>
      <ItemData ItemOID="IT.FA.EPOCH" Value="TREATMENT"/>
      <ItemData ItemOID="IT.FA.FADTC" Value="2013-01-12"/>
      <ItemData ItemOID="IT.FA.FADY" Value="37"/>
    </ItemGroupData>
    <ItemGroupData ItemGroupOID="IG.FA" data:ItemGroupDataSeq="56">
      <ItemData ItemOID="IT.FA.STUDYID" Value="CDISCPILOT01"/>
      <ItemData ItemOID="IT.FA.DOMAIN" Value="FA"/>
      <ItemData ItemOID="IT.FA.USUBJID" Value="CDISC011"/>
      <ItemData ItemOID="IT.FA.FASEQ" Value="8"/>
      <ItemData ItemOID="IT.FA.FALNKGRP" Value="2"/>
      <ItemData ItemOID="IT.FA.FATESTCD" Value="OCCUR"/>
      <ItemData ItemOID="IT.FA.FATEST" Value="Occurrence Indicator"/>
      <ItemData ItemOID="IT.FA.FAOBJ" Value="PAIN"/>
      <ItemData ItemOID="IT.FA.FACAT" Value="INJECTION SITE REACTION"/>
      <ItemData ItemOID="IT.FA.FAORRES" Value="N"/>
      <ItemData ItemOID="IT.FA.FASTRESC" Value="N"/>
      <ItemData ItemOID="IT.FA.FALOC" Value="ARM"/>
      <ItemData ItemOID="IT.FA.EPOCH" Value="TREATMENT"/>
      <ItemData ItemOID="IT.FA.FADTC" Value="2013-01-12"/>
      <ItemData ItemOID="IT.FA.FADY" Value="37"/>
    </ItemGroupData>
    <ItemGroupData ItemGroupOID="IG.FA" data:ItemGroupDataSeq="57">
      <ItemData ItemOID="IT.FA.STUDYID" Value="CDISCPILOT01"/>
      <ItemData ItemOID="IT.FA.DOMAIN" Value="FA"/>
      <ItemData ItemOID="IT.FA.USUBJID" Value="CDISC011"/>
      <ItemData ItemOID="IT.FA.FASEQ" Value="9"/>
      <ItemData ItemOID="IT.FA.FALNKGRP" Value="2"/>
      <ItemData ItemOID="IT.FA.FATESTCD" Value="OCCUR"/>
      <ItemData ItemOID="IT.FA.FATEST" Value="Occurrence Indicator"/>
      <ItemData ItemOID="IT.FA.FAOBJ" Value="INDURATION"/>
      <ItemData ItemOID="IT.FA.FACAT" Value="INJECTION SITE REACTION"/>
      <ItemData ItemOID="IT.FA.FAORRES" Value="N"/>
      <ItemData ItemOID="IT.FA.FASTRESC" Value="N"/>
      <ItemData ItemOID="IT.FA.FALOC" Value="ARM"/>
      <ItemData ItemOID="IT.FA.EPOCH" Value="TREATMENT"/>
      <ItemData ItemOID="IT.FA.FADTC" Value="2013-01-12"/>
      <ItemData ItemOID="IT.FA.FADY" Value="37"/>
    </ItemGroupData>
    <ItemGroupData ItemGroupOID="IG.FA" data:ItemGroupDataSeq="58">
      <ItemData ItemOID="IT.FA.STUDYID" Value="CDISCPILOT01"/>
      <ItemData ItemOID="IT.FA.DOMAIN" Value="FA"/>
      <ItemData ItemOID="IT.FA.USUBJID" Value="CDISC011"/>
      <ItemData ItemOID="IT.FA.FASEQ" Value="10"/>
      <ItemData ItemOID="IT.FA.FALNKGRP" Value="2"/>
      <ItemData ItemOID="IT.FA.FATESTCD" Value="OCCUR"/>
      <ItemData ItemOID="IT.FA.FATEST" Value="Occurrence Indicator"/>
      <ItemData ItemOID="IT.FA.FAOBJ" Value="PRURITIS"/>
      <ItemData ItemOID="IT.FA.FACAT" Value="INJECTION SITE REACTION"/>
      <ItemData ItemOID="IT.FA.FAORRES" Value="Y"/>
      <ItemData ItemOID="IT.FA.FASTRESC" Value="Y"/>
      <ItemData ItemOID="IT.FA.FALOC" Value="ARM"/>
      <ItemData ItemOID="IT.FA.EPOCH" Value="TREATMENT"/>
      <ItemData ItemOID="IT.FA.FADTC" Value="2013-01-12"/>
      <ItemData ItemOID="IT.FA.FADY" Value="37"/>
    </ItemGroupData>
    <ItemGroupData ItemGroupOID="IG.FA" data:ItemGroupDataSeq="59">
      <ItemData ItemOID="IT.FA.STUDYID" Value="CDISCPILOT01"/>
      <ItemData ItemOID="IT.FA.DOMAIN" Value="FA"/>
      <ItemData ItemOID="IT.FA.USUBJID" Value="CDISC011"/>
      <ItemData ItemOID="IT.FA.FASEQ" Value="11"/>
      <ItemData ItemOID="IT.FA.FALNKGRP" Value="2"/>
      <ItemData ItemOID="IT.FA.FATESTCD" Value="SEV"/>
      <ItemData ItemOID="IT.FA.FATEST" Value="Severity/Intensity"/>
      <ItemData ItemOID="IT.FA.FAOBJ" Value="PRURITIS"/>
      <ItemData ItemOID="IT.FA.FACAT" Value="INJECTION SITE REACTION"/>
      <ItemData ItemOID="IT.FA.FAORRES" Value="MILD"/>
      <ItemData ItemOID="IT.FA.FASTRESC" Value="MILD"/>
      <ItemData ItemOID="IT.FA.FALOC" Value="ARM"/>
      <ItemData ItemOID="IT.FA.EPOCH" Value="TREATMENT"/>
      <ItemData ItemOID="IT.FA.FADTC" Value="2013-01-12"/>
      <ItemData ItemOID="IT.FA.FADY" Value="37"/>
    </ItemGroupData>
    <ItemGroupData ItemGroupOID="IG.FA" data:ItemGroupDataSeq="60">
      <ItemData ItemOID="IT.FA.STUDYID" Value="CDISCPILOT01"/>
      <ItemData ItemOID="IT.FA.DOMAIN" Value="FA"/>
      <ItemData ItemOID="IT.FA.USUBJID" Value="CDISC011"/>
      <ItemData ItemOID="IT.FA.FASEQ" Value="12"/>
      <ItemData ItemOID="IT.FA.FALNKGRP" Value="2"/>
      <ItemData ItemOID="IT.FA.FATESTCD" Value="OCCUR"/>
      <ItemData ItemOID="IT.FA.FATEST" Value="Occurrence Indicator"/>
      <ItemData ItemOID="IT.FA.FAOBJ" Value="EDEMA"/>
      <ItemData ItemOID="IT.FA.FACAT" Value="INJECTION SITE REACTION"/>
      <ItemData ItemOID="IT.FA.FAORRES" Value="N"/>
      <ItemData ItemOID="IT.FA.FASTRESC" Value="N"/>
      <ItemData ItemOID="IT.FA.FALOC" Value="ARM"/>
      <ItemData ItemOID="IT.FA.EPOCH" Value="TREATMENT"/>
      <ItemData ItemOID="IT.FA.FADTC" Value="2013-01-12"/>
      <ItemData ItemOID="IT.FA.FADY" Value="37"/>
    </ItemGroupData>
    <ItemGroupData ItemGroupOID="IG.FA" data:ItemGroupDataSeq="61">
      <ItemData ItemOID="IT.FA.STUDYID" Value="CDISCPILOT01"/>
      <ItemData ItemOID="IT.FA.DOMAIN" Value="FA"/>
      <ItemData ItemOID="IT.FA.USUBJID" Value="CDISC014"/>
      <ItemData ItemOID="IT.FA.FASEQ" Value="1"/>
      <ItemData ItemOID="IT.FA.FALNKGRP" Value="1"/>
      <ItemData ItemOID="IT.FA.FATESTCD" Value="OCCUR"/>
      <ItemData ItemOID="IT.FA.FATEST" Value="Occurrence Indicator"/>
      <ItemData ItemOID="IT.FA.FAOBJ" Value="ERYTHEMA"/>
      <ItemData ItemOID="IT.FA.FACAT" Value="INJECTION SITE REACTION"/>
      <ItemData ItemOID="IT.FA.FAORRES" Value="N"/>
      <ItemData ItemOID="IT.FA.FASTRESC" Value="N"/>
      <ItemData ItemOID="IT.FA.FALOC" Value="ARM"/>
      <ItemData ItemOID="IT.FA.EPOCH" Value="TREATMENT"/>
      <ItemData ItemOID="IT.FA.FADTC" Value="2013-04-16"/>
      <ItemData ItemOID="IT.FA.FADY" Value="14"/>
    </ItemGroupData>
    <ItemGroupData ItemGroupOID="IG.FA" data:ItemGroupDataSeq="62">
      <ItemData ItemOID="IT.FA.STUDYID" Value="CDISCPILOT01"/>
      <ItemData ItemOID="IT.FA.DOMAIN" Value="FA"/>
      <ItemData ItemOID="IT.FA.USUBJID" Value="CDISC014"/>
      <ItemData ItemOID="IT.FA.FASEQ" Value="2"/>
      <ItemData ItemOID="IT.FA.FALNKGRP" Value="1"/>
      <ItemData ItemOID="IT.FA.FATESTCD" Value="OCCUR"/>
      <ItemData ItemOID="IT.FA.FATEST" Value="Occurrence Indicator"/>
      <ItemData ItemOID="IT.FA.FAOBJ" Value="PAIN"/>
      <ItemData ItemOID="IT.FA.FACAT" Value="INJECTION SITE REACTION"/>
      <ItemData ItemOID="IT.FA.FAORRES" Value="N"/>
      <ItemData ItemOID="IT.FA.FASTRESC" Value="N"/>
      <ItemData ItemOID="IT.FA.FALOC" Value="ARM"/>
      <ItemData ItemOID="IT.FA.EPOCH" Value="TREATMENT"/>
      <ItemData ItemOID="IT.FA.FADTC" Value="2013-04-16"/>
      <ItemData ItemOID="IT.FA.FADY" Value="14"/>
    </ItemGroupData>
    <ItemGroupData ItemGroupOID="IG.FA" data:ItemGroupDataSeq="63">
      <ItemData ItemOID="IT.FA.STUDYID" Value="CDISCPILOT01"/>
      <ItemData ItemOID="IT.FA.DOMAIN" Value="FA"/>
      <ItemData ItemOID="IT.FA.USUBJID" Value="CDISC014"/>
      <ItemData ItemOID="IT.FA.FASEQ" Value="3"/>
      <ItemData ItemOID="IT.FA.FALNKGRP" Value="1"/>
      <ItemData ItemOID="IT.FA.FATESTCD" Value="OCCUR"/>
      <ItemData ItemOID="IT.FA.FATEST" Value="Occurrence Indicator"/>
      <ItemData ItemOID="IT.FA.FAOBJ" Value="INDURATION"/>
      <ItemData ItemOID="IT.FA.FACAT" Value="INJECTION SITE REACTION"/>
      <ItemData ItemOID="IT.FA.FAORRES" Value="N"/>
      <ItemData ItemOID="IT.FA.FASTRESC" Value="N"/>
      <ItemData ItemOID="IT.FA.FALOC" Value="ARM"/>
      <ItemData ItemOID="IT.FA.EPOCH" Value="TREATMENT"/>
      <ItemData ItemOID="IT.FA.FADTC" Value="2013-04-16"/>
      <ItemData ItemOID="IT.FA.FADY" Value="14"/>
    </ItemGroupData>
    <ItemGroupData ItemGroupOID="IG.FA" data:ItemGroupDataSeq="64">
      <ItemData ItemOID="IT.FA.STUDYID" Value="CDISCPILOT01"/>
      <ItemData ItemOID="IT.FA.DOMAIN" Value="FA"/>
      <ItemData ItemOID="IT.FA.USUBJID" Value="CDISC014"/>
      <ItemData ItemOID="IT.FA.FASEQ" Value="4"/>
      <ItemData ItemOID="IT.FA.FALNKGRP" Value="1"/>
      <ItemData ItemOID="IT.FA.FATESTCD" Value="OCCUR"/>
      <ItemData ItemOID="IT.FA.FATEST" Value="Occurrence Indicator"/>
      <ItemData ItemOID="IT.FA.FAOBJ" Value="PRURITIS"/>
      <ItemData ItemOID="IT.FA.FACAT" Value="INJECTION SITE REACTION"/>
      <ItemData ItemOID="IT.FA.FAORRES" Value="Y"/>
      <ItemData ItemOID="IT.FA.FASTRESC" Value="Y"/>
      <ItemData ItemOID="IT.FA.FALOC" Value="ARM"/>
      <ItemData ItemOID="IT.FA.EPOCH" Value="TREATMENT"/>
      <ItemData ItemOID="IT.FA.FADTC" Value="2013-04-16"/>
      <ItemData ItemOID="IT.FA.FADY" Value="14"/>
    </ItemGroupData>
    <ItemGroupData ItemGroupOID="IG.FA" data:ItemGroupDataSeq="65">
      <ItemData ItemOID="IT.FA.STUDYID" Value="CDISCPILOT01"/>
      <ItemData ItemOID="IT.FA.DOMAIN" Value="FA"/>
      <ItemData ItemOID="IT.FA.USUBJID" Value="CDISC014"/>
      <ItemData ItemOID="IT.FA.FASEQ" Value="5"/>
      <ItemData ItemOID="IT.FA.FALNKGRP" Value="1"/>
      <ItemData ItemOID="IT.FA.FATESTCD" Value="SEV"/>
      <ItemData ItemOID="IT.FA.FATEST" Value="Severity/Intensity"/>
      <ItemData ItemOID="IT.FA.FAOBJ" Value="PRURITIS"/>
      <ItemData ItemOID="IT.FA.FACAT" Value="INJECTION SITE REACTION"/>
      <ItemData ItemOID="IT.FA.FAORRES" Value="MODERATE"/>
      <ItemData ItemOID="IT.FA.FASTRESC" Value="MODERATE"/>
      <ItemData ItemOID="IT.FA.FALOC" Value="ARM"/>
      <ItemData ItemOID="IT.FA.EPOCH" Value="TREATMENT"/>
      <ItemData ItemOID="IT.FA.FADTC" Value="2013-04-16"/>
      <ItemData ItemOID="IT.FA.FADY" Value="14"/>
    </ItemGroupData>
    <ItemGroupData ItemGroupOID="IG.FA" data:ItemGroupDataSeq="66">
      <ItemData ItemOID="IT.FA.STUDYID" Value="CDISCPILOT01"/>
      <ItemData ItemOID="IT.FA.DOMAIN" Value="FA"/>
      <ItemData ItemOID="IT.FA.USUBJID" Value="CDISC014"/>
      <ItemData ItemOID="IT.FA.FASEQ" Value="6"/>
      <ItemData ItemOID="IT.FA.FALNKGRP" Value="1"/>
      <ItemData ItemOID="IT.FA.FATESTCD" Value="OCCUR"/>
      <ItemData ItemOID="IT.FA.FATEST" Value="Occurrence Indicator"/>
      <ItemData ItemOID="IT.FA.FAOBJ" Value="EDEMA"/>
      <ItemData ItemOID="IT.FA.FACAT" Value="INJECTION SITE REACTION"/>
      <ItemData ItemOID="IT.FA.FAORRES" Value="N"/>
      <ItemData ItemOID="IT.FA.FASTRESC" Value="N"/>
      <ItemData ItemOID="IT.FA.FALOC" Value="ARM"/>
      <ItemData ItemOID="IT.FA.EPOCH" Value="TREATMENT"/>
      <ItemData ItemOID="IT.FA.FADTC" Value="2013-04-16"/>
      <ItemData ItemOID="IT.FA.FADY" Value="14"/>
    </ItemGroupData>
    <ItemGroupData ItemGroupOID="IG.FA" data:ItemGroupDataSeq="67">
      <ItemData ItemOID="IT.FA.STUDYID" Value="CDISCPILOT01"/>
      <ItemData ItemOID="IT.FA.DOMAIN" Value="FA"/>
      <ItemData ItemOID="IT.FA.USUBJID" Value="CDISC017"/>
      <ItemData ItemOID="IT.FA.FASEQ" Value="1"/>
      <ItemData ItemOID="IT.FA.FALNKGRP" Value="5"/>
      <ItemData ItemOID="IT.FA.FATESTCD" Value="OCCUR"/>
      <ItemData ItemOID="IT.FA.FATEST" Value="Occurrence Indicator"/>
      <ItemData ItemOID="IT.FA.FAOBJ" Value="ERYTHEMA"/>
      <ItemData ItemOID="IT.FA.FACAT" Value="INJECTION SITE REACTION"/>
      <ItemData ItemOID="IT.FA.FAORRES" Value="N"/>
      <ItemData ItemOID="IT.FA.FASTRESC" Value="N"/>
      <ItemData ItemOID="IT.FA.FALOC" Value="ARM"/>
      <ItemData ItemOID="IT.FA.EPOCH" Value="TREATMENT"/>
      <ItemData ItemOID="IT.FA.FADTC" Value="2013-12-29"/>
      <ItemData ItemOID="IT.FA.FADY" Value="100"/>
    </ItemGroupData>
    <ItemGroupData ItemGroupOID="IG.FA" data:ItemGroupDataSeq="68">
      <ItemData ItemOID="IT.FA.STUDYID" Value="CDISCPILOT01"/>
      <ItemData ItemOID="IT.FA.DOMAIN" Value="FA"/>
      <ItemData ItemOID="IT.FA.USUBJID" Value="CDISC017"/>
      <ItemData ItemOID="IT.FA.FASEQ" Value="2"/>
      <ItemData ItemOID="IT.FA.FALNKGRP" Value="5"/>
      <ItemData ItemOID="IT.FA.FATESTCD" Value="OCCUR"/>
      <ItemData ItemOID="IT.FA.FATEST" Value="Occurrence Indicator"/>
      <ItemData ItemOID="IT.FA.FAOBJ" Value="PAIN"/>
      <ItemData ItemOID="IT.FA.FACAT" Value="INJECTION SITE REACTION"/>
      <ItemData ItemOID="IT.FA.FAORRES" Value="N"/>
      <ItemData ItemOID="IT.FA.FASTRESC" Value="N"/>
      <ItemData ItemOID="IT.FA.FALOC" Value="ARM"/>
      <ItemData ItemOID="IT.FA.EPOCH" Value="TREATMENT"/>
      <ItemData ItemOID="IT.FA.FADTC" Value="2013-12-29"/>
      <ItemData ItemOID="IT.FA.FADY" Value="100"/>
    </ItemGroupData>
    <ItemGroupData ItemGroupOID="IG.FA" data:ItemGroupDataSeq="69">
      <ItemData ItemOID="IT.FA.STUDYID" Value="CDISCPILOT01"/>
      <ItemData ItemOID="IT.FA.DOMAIN" Value="FA"/>
      <ItemData ItemOID="IT.FA.USUBJID" Value="CDISC017"/>
      <ItemData ItemOID="IT.FA.FASEQ" Value="3"/>
      <ItemData ItemOID="IT.FA.FALNKGRP" Value="5"/>
      <ItemData ItemOID="IT.FA.FATESTCD" Value="OCCUR"/>
      <ItemData ItemOID="IT.FA.FATEST" Value="Occurrence Indicator"/>
      <ItemData ItemOID="IT.FA.FAOBJ" Value="INDURATION"/>
      <ItemData ItemOID="IT.FA.FACAT" Value="INJECTION SITE REACTION"/>
      <ItemData ItemOID="IT.FA.FAORRES" Value="N"/>
      <ItemData ItemOID="IT.FA.FASTRESC" Value="N"/>
      <ItemData ItemOID="IT.FA.FALOC" Value="ARM"/>
      <ItemData ItemOID="IT.FA.EPOCH" Value="TREATMENT"/>
      <ItemData ItemOID="IT.FA.FADTC" Value="2013-12-29"/>
      <ItemData ItemOID="IT.FA.FADY" Value="100"/>
    </ItemGroupData>
    <ItemGroupData ItemGroupOID="IG.FA" data:ItemGroupDataSeq="70">
      <ItemData ItemOID="IT.FA.STUDYID" Value="CDISCPILOT01"/>
      <ItemData ItemOID="IT.FA.DOMAIN" Value="FA"/>
      <ItemData ItemOID="IT.FA.USUBJID" Value="CDISC017"/>
      <ItemData ItemOID="IT.FA.FASEQ" Value="4"/>
      <ItemData ItemOID="IT.FA.FALNKGRP" Value="5"/>
      <ItemData ItemOID="IT.FA.FATESTCD" Value="OCCUR"/>
      <ItemData ItemOID="IT.FA.FATEST" Value="Occurrence Indicator"/>
      <ItemData ItemOID="IT.FA.FAOBJ" Value="PRURITIS"/>
      <ItemData ItemOID="IT.FA.FACAT" Value="INJECTION SITE REACTION"/>
      <ItemData ItemOID="IT.FA.FAORRES" Value="Y"/>
      <ItemData ItemOID="IT.FA.FASTRESC" Value="Y"/>
      <ItemData ItemOID="IT.FA.FALOC" Value="ARM"/>
      <ItemData ItemOID="IT.FA.EPOCH" Value="TREATMENT"/>
      <ItemData ItemOID="IT.FA.FADTC" Value="2013-12-29"/>
      <ItemData ItemOID="IT.FA.FADY" Value="100"/>
    </ItemGroupData>
    <ItemGroupData ItemGroupOID="IG.FA" data:ItemGroupDataSeq="71">
      <ItemData ItemOID="IT.FA.STUDYID" Value="CDISCPILOT01"/>
      <ItemData ItemOID="IT.FA.DOMAIN" Value="FA"/>
      <ItemData ItemOID="IT.FA.USUBJID" Value="CDISC017"/>
      <ItemData ItemOID="IT.FA.FASEQ" Value="5"/>
      <ItemData ItemOID="IT.FA.FALNKGRP" Value="5"/>
      <ItemData ItemOID="IT.FA.FATESTCD" Value="SEV"/>
      <ItemData ItemOID="IT.FA.FATEST" Value="Severity/Intensity"/>
      <ItemData ItemOID="IT.FA.FAOBJ" Value="PRURITIS"/>
      <ItemData ItemOID="IT.FA.FACAT" Value="INJECTION SITE REACTION"/>
      <ItemData ItemOID="IT.FA.FAORRES" Value="MODERATE"/>
      <ItemData ItemOID="IT.FA.FASTRESC" Value="MODERATE"/>
      <ItemData ItemOID="IT.FA.FALOC" Value="ARM"/>
      <ItemData ItemOID="IT.FA.EPOCH" Value="TREATMENT"/>
      <ItemData ItemOID="IT.FA.FADTC" Value="2013-12-29"/>
      <ItemData ItemOID="IT.FA.FADY" Value="100"/>
    </ItemGroupData>
    <ItemGroupData ItemGroupOID="IG.FA" data:ItemGroupDataSeq="72">
      <ItemData ItemOID="IT.FA.STUDYID" Value="CDISCPILOT01"/>
      <ItemData ItemOID="IT.FA.DOMAIN" Value="FA"/>
      <ItemData ItemOID="IT.FA.USUBJID" Value="CDISC017"/>
      <ItemData ItemOID="IT.FA.FASEQ" Value="6"/>
      <ItemData ItemOID="IT.FA.FALNKGRP" Value="5"/>
      <ItemData ItemOID="IT.FA.FATESTCD" Value="OCCUR"/>
      <ItemData ItemOID="IT.FA.FATEST" Value="Occurrence Indicator"/>
      <ItemData ItemOID="IT.FA.FAOBJ" Value="EDEMA"/>
      <ItemData ItemOID="IT.FA.FACAT" Value="INJECTION SITE REACTION"/>
      <ItemData ItemOID="IT.FA.FAORRES" Value="N"/>
      <ItemData ItemOID="IT.FA.FASTRESC" Value="N"/>
      <ItemData ItemOID="IT.FA.FALOC" Value="ARM"/>
      <ItemData ItemOID="IT.FA.EPOCH" Value="TREATMENT"/>
      <ItemData ItemOID="IT.FA.FADTC" Value="2013-12-29"/>
      <ItemData ItemOID="IT.FA.FADY" Value="100"/>
    </ItemGroupData>
    <ItemGroupData ItemGroupOID="IG.FA" data:ItemGroupDataSeq="73">
      <ItemData ItemOID="IT.FA.STUDYID" Value="CDISCPILOT01"/>
      <ItemData ItemOID="IT.FA.DOMAIN" Value="FA"/>
      <ItemData ItemOID="IT.FA.USUBJID" Value="CDISC018"/>
      <ItemData ItemOID="IT.FA.FASEQ" Value="1"/>
      <ItemData ItemOID="IT.FA.FALNKGRP" Value="8"/>
      <ItemData ItemOID="IT.FA.FATESTCD" Value="OCCUR"/>
      <ItemData ItemOID="IT.FA.FATEST" Value="Occurrence Indicator"/>
      <ItemData ItemOID="IT.FA.FAOBJ" Value="ERYTHEMA"/>
      <ItemData ItemOID="IT.FA.FACAT" Value="INJECTION SITE REACTION"/>
      <ItemData ItemOID="IT.FA.FAORRES" Value="N"/>
      <ItemData ItemOID="IT.FA.FASTRESC" Value="N"/>
      <ItemData ItemOID="IT.FA.FALOC" Value="ARM"/>
      <ItemData ItemOID="IT.FA.EPOCH" Value="TREATMENT"/>
      <ItemData ItemOID="IT.FA.FADTC" Value="2013-01-27"/>
      <ItemData ItemOID="IT.FA.FADY" Value="42"/>
    </ItemGroupData>
    <ItemGroupData ItemGroupOID="IG.FA" data:ItemGroupDataSeq="74">
      <ItemData ItemOID="IT.FA.STUDYID" Value="CDISCPILOT01"/>
      <ItemData ItemOID="IT.FA.DOMAIN" Value="FA"/>
      <ItemData ItemOID="IT.FA.USUBJID" Value="CDISC018"/>
      <ItemData ItemOID="IT.FA.FASEQ" Value="2"/>
      <ItemData ItemOID="IT.FA.FALNKGRP" Value="8"/>
      <ItemData ItemOID="IT.FA.FATESTCD" Value="OCCUR"/>
      <ItemData ItemOID="IT.FA.FATEST" Value="Occurrence Indicator"/>
      <ItemData ItemOID="IT.FA.FAOBJ" Value="PAIN"/>
      <ItemData ItemOID="IT.FA.FACAT" Value="INJECTION SITE REACTION"/>
      <ItemData ItemOID="IT.FA.FAORRES" Value="N"/>
      <ItemData ItemOID="IT.FA.FASTRESC" Value="N"/>
      <ItemData ItemOID="IT.FA.FALOC" Value="ARM"/>
      <ItemData ItemOID="IT.FA.EPOCH" Value="TREATMENT"/>
      <ItemData ItemOID="IT.FA.FADTC" Value="2013-01-27"/>
      <ItemData ItemOID="IT.FA.FADY" Value="42"/>
    </ItemGroupData>
    <ItemGroupData ItemGroupOID="IG.FA" data:ItemGroupDataSeq="75">
      <ItemData ItemOID="IT.FA.STUDYID" Value="CDISCPILOT01"/>
      <ItemData ItemOID="IT.FA.DOMAIN" Value="FA"/>
      <ItemData ItemOID="IT.FA.USUBJID" Value="CDISC018"/>
      <ItemData ItemOID="IT.FA.FASEQ" Value="3"/>
      <ItemData ItemOID="IT.FA.FALNKGRP" Value="8"/>
      <ItemData ItemOID="IT.FA.FATESTCD" Value="OCCUR"/>
      <ItemData ItemOID="IT.FA.FATEST" Value="Occurrence Indicator"/>
      <ItemData ItemOID="IT.FA.FAOBJ" Value="INDURATION"/>
      <ItemData ItemOID="IT.FA.FACAT" Value="INJECTION SITE REACTION"/>
      <ItemData ItemOID="IT.FA.FAORRES" Value="N"/>
      <ItemData ItemOID="IT.FA.FASTRESC" Value="N"/>
      <ItemData ItemOID="IT.FA.FALOC" Value="ARM"/>
      <ItemData ItemOID="IT.FA.EPOCH" Value="TREATMENT"/>
      <ItemData ItemOID="IT.FA.FADTC" Value="2013-01-27"/>
      <ItemData ItemOID="IT.FA.FADY" Value="42"/>
    </ItemGroupData>
    <ItemGroupData ItemGroupOID="IG.FA" data:ItemGroupDataSeq="76">
      <ItemData ItemOID="IT.FA.STUDYID" Value="CDISCPILOT01"/>
      <ItemData ItemOID="IT.FA.DOMAIN" Value="FA"/>
      <ItemData ItemOID="IT.FA.USUBJID" Value="CDISC018"/>
      <ItemData ItemOID="IT.FA.FASEQ" Value="4"/>
      <ItemData ItemOID="IT.FA.FALNKGRP" Value="8"/>
      <ItemData ItemOID="IT.FA.FATESTCD" Value="OCCUR"/>
      <ItemData ItemOID="IT.FA.FATEST" Value="Occurrence Indicator"/>
      <ItemData ItemOID="IT.FA.FAOBJ" Value="PRURITIS"/>
      <ItemData ItemOID="IT.FA.FACAT" Value="INJECTION SITE REACTION"/>
      <ItemData ItemOID="IT.FA.FAORRES" Value="Y"/>
      <ItemData ItemOID="IT.FA.FASTRESC" Value="Y"/>
      <ItemData ItemOID="IT.FA.FALOC" Value="ARM"/>
      <ItemData ItemOID="IT.FA.EPOCH" Value="TREATMENT"/>
      <ItemData ItemOID="IT.FA.FADTC" Value="2013-01-27"/>
      <ItemData ItemOID="IT.FA.FADY" Value="42"/>
    </ItemGroupData>
    <ItemGroupData ItemGroupOID="IG.FA" data:ItemGroupDataSeq="77">
      <ItemData ItemOID="IT.FA.STUDYID" Value="CDISCPILOT01"/>
      <ItemData ItemOID="IT.FA.DOMAIN" Value="FA"/>
      <ItemData ItemOID="IT.FA.USUBJID" Value="CDISC018"/>
      <ItemData ItemOID="IT.FA.FASEQ" Value="5"/>
      <ItemData ItemOID="IT.FA.FALNKGRP" Value="8"/>
      <ItemData ItemOID="IT.FA.FATESTCD" Value="SEV"/>
      <ItemData ItemOID="IT.FA.FATEST" Value="Severity/Intensity"/>
      <ItemData ItemOID="IT.FA.FAOBJ" Value="PRURITIS"/>
      <ItemData ItemOID="IT.FA.FACAT" Value="INJECTION SITE REACTION"/>
      <ItemData ItemOID="IT.FA.FAORRES" Value="MODERATE"/>
      <ItemData ItemOID="IT.FA.FASTRESC" Value="MODERATE"/>
      <ItemData ItemOID="IT.FA.FALOC" Value="ARM"/>
      <ItemData ItemOID="IT.FA.EPOCH" Value="TREATMENT"/>
      <ItemData ItemOID="IT.FA.FADTC" Value="2013-01-27"/>
      <ItemData ItemOID="IT.FA.FADY" Value="42"/>
    </ItemGroupData>
    <ItemGroupData ItemGroupOID="IG.FA" data:ItemGroupDataSeq="78">
      <ItemData ItemOID="IT.FA.STUDYID" Value="CDISCPILOT01"/>
      <ItemData ItemOID="IT.FA.DOMAIN" Value="FA"/>
      <ItemData ItemOID="IT.FA.USUBJID" Value="CDISC018"/>
      <ItemData ItemOID="IT.FA.FASEQ" Value="6"/>
      <ItemData ItemOID="IT.FA.FALNKGRP" Value="8"/>
      <ItemData ItemOID="IT.FA.FATESTCD" Value="OCCUR"/>
      <ItemData ItemOID="IT.FA.FATEST" Value="Occurrence Indicator"/>
      <ItemData ItemOID="IT.FA.FAOBJ" Value="EDEMA"/>
      <ItemData ItemOID="IT.FA.FACAT" Value="INJECTION SITE REACTION"/>
      <ItemData ItemOID="IT.FA.FAORRES" Value="N"/>
      <ItemData ItemOID="IT.FA.FASTRESC" Value="N"/>
      <ItemData ItemOID="IT.FA.FALOC" Value="ARM"/>
      <ItemData ItemOID="IT.FA.EPOCH" Value="TREATMENT"/>
      <ItemData ItemOID="IT.FA.FADTC" Value="2013-01-27"/>
      <ItemData ItemOID="IT.FA.FADY" Value="42"/>
    </ItemGroupData>
  </ClinicalData>
</ODM>
