<?xml version="1.0" encoding="UTF-8"?>
<!-- Dataset-XML: Untyped Data Example  --> 
<!-- Built from the SAS XPT files published with the SDTM-MSG (SDTM Metadata Submission Guidelines) V2.0 --> 
<ODM
  xmlns="http://www.cdisc.org/ns/odm/v1.3"
  xmlns:xlink="http://www.w3.org/1999/xlink" 
  xmlns:data="http://www.cdisc.org/ns/Dataset-XML/v1.0"
  FileType="Snapshot"
  ODMVersion="1.3.2"
  data:DatasetXMLVersion="1.0.0"
  FileOID="www.cdisc.org/StudyMSGv2/1/Define-XML_2.1.0(IG.OE).Data(OE)"
  PriorFileOID="www.cdisc.org/StudyMSGv2/1/Define-XML_2.1.0"
  CreationDateTime="2020-08-21T09:21:13"
  Originator="CDISC MSG Team"
  SourceSystem="M.Hungria-System"
  SourceSystemVersion="2.1-A1"
  >
  <ClinicalData
    StudyOID="cdisc.com/CDISCPILOT01"
    MetaDataVersionOID="MDV.MSGv2.0.SDTMIG.3.3.SDTM.1.7">
    <!-- Dataset (OE) -->
    <ItemGroupData ItemGroupOID="IG.OE" data:ItemGroupDataSeq="1">
      <ItemData ItemOID="IT.OE.STUDYID" Value="CDISCPILOT01"/>
      <ItemData ItemOID="IT.OE.DOMAIN" Value="OE"/>
      <ItemData ItemOID="IT.OE.USUBJID" Value="CDISC001"/>
      <ItemData ItemOID="IT.OE.FOCID" Value="OD"/>
      <ItemData ItemOID="IT.OE.OESEQ" Value="1"/>
      <ItemData ItemOID="IT.OE.OETESTCD" Value="INTP"/>
      <ItemData ItemOID="IT.OE.OETEST" Value="Interpretation"/>
      <ItemData ItemOID="IT.OE.OEORRES" Value="NORMAL"/>
      <ItemData ItemOID="IT.OE.OESTRESC" Value="NORMAL"/>
      <ItemData ItemOID="IT.OE.OELOC" Value="EYE"/>
      <ItemData ItemOID="IT.OE.OELAT" Value="RIGHT"/>
      <ItemData ItemOID="IT.OE.OEMETHOD" Value="SLIT LAMP"/>
      <ItemData ItemOID="IT.OE.VISITNUM" Value="1"/>
      <ItemData ItemOID="IT.OE.VISIT" Value="SCREENING 1"/>
      <ItemData ItemOID="IT.OE.EPOCH" Value="SCREENING"/>
      <ItemData ItemOID="IT.OE.OEDTC" Value="2012-11-23"/>
      <ItemData ItemOID="IT.OE.OEDY" Value="-7"/>
    </ItemGroupData>
    <ItemGroupData ItemGroupOID="IG.OE" data:ItemGroupDataSeq="2">
      <ItemData ItemOID="IT.OE.STUDYID" Value="CDISCPILOT01"/>
      <ItemData ItemOID="IT.OE.DOMAIN" Value="OE"/>
      <ItemData ItemOID="IT.OE.USUBJID" Value="CDISC001"/>
      <ItemData ItemOID="IT.OE.FOCID" Value="OS"/>
      <ItemData ItemOID="IT.OE.OESEQ" Value="2"/>
      <ItemData ItemOID="IT.OE.OETESTCD" Value="INTP"/>
      <ItemData ItemOID="IT.OE.OETEST" Value="Interpretation"/>
      <ItemData ItemOID="IT.OE.OEORRES" Value="ABNORMAL"/>
      <ItemData ItemOID="IT.OE.OESTRESC" Value="ABNORMAL"/>
      <ItemData ItemOID="IT.OE.OELOC" Value="EYE"/>
      <ItemData ItemOID="IT.OE.OELAT" Value="LEFT"/>
      <ItemData ItemOID="IT.OE.OEMETHOD" Value="SLIT LAMP"/>
      <ItemData ItemOID="IT.OE.VISITNUM" Value="1"/>
      <ItemData ItemOID="IT.OE.VISIT" Value="SCREENING 1"/>
      <ItemData ItemOID="IT.OE.EPOCH" Value="SCREENING"/>
      <ItemData ItemOID="IT.OE.OEDTC" Value="2012-11-23"/>
      <ItemData ItemOID="IT.OE.OEDY" Value="-7"/>
    </ItemGroupData>
    <ItemGroupData ItemGroupOID="IG.OE" data:ItemGroupDataSeq="3">
      <ItemData ItemOID="IT.OE.STUDYID" Value="CDISCPILOT01"/>
      <ItemData ItemOID="IT.OE.DOMAIN" Value="OE"/>
      <ItemData ItemOID="IT.OE.USUBJID" Value="CDISC001"/>
      <ItemData ItemOID="IT.OE.FOCID" Value="OS"/>
      <ItemData ItemOID="IT.OE.OESEQ" Value="3"/>
      <ItemData ItemOID="IT.OE.OETESTCD" Value="ABDETAIL"/>
      <ItemData ItemOID="IT.OE.OETEST" Value="Abnormality Detail"/>
      <ItemData ItemOID="IT.OE.OEORRES" Value="SUPERFICIAL PUNCTATE KERATOPATHY"/>
      <ItemData ItemOID="IT.OE.OESTRESC" Value="SUPERFICIAL PUNCTATE KERATOPATHY"/>
      <ItemData ItemOID="IT.OE.OELOC" Value="CORNEA"/>
      <ItemData ItemOID="IT.OE.OELAT" Value="LEFT"/>
      <ItemData ItemOID="IT.OE.OEMETHOD" Value="SLIT LAMP"/>
      <ItemData ItemOID="IT.OE.VISITNUM" Value="1"/>
      <ItemData ItemOID="IT.OE.VISIT" Value="SCREENING 1"/>
      <ItemData ItemOID="IT.OE.EPOCH" Value="SCREENING"/>
      <ItemData ItemOID="IT.OE.OEDTC" Value="2012-11-23"/>
      <ItemData ItemOID="IT.OE.OEDY" Value="-7"/>
    </ItemGroupData>
    <ItemGroupData ItemGroupOID="IG.OE" data:ItemGroupDataSeq="4">
      <ItemData ItemOID="IT.OE.STUDYID" Value="CDISCPILOT01"/>
      <ItemData ItemOID="IT.OE.DOMAIN" Value="OE"/>
      <ItemData ItemOID="IT.OE.USUBJID" Value="CDISC001"/>
      <ItemData ItemOID="IT.OE.FOCID" Value="OD"/>
      <ItemData ItemOID="IT.OE.OESEQ" Value="4"/>
      <ItemData ItemOID="IT.OE.OETESTCD" Value="INTP"/>
      <ItemData ItemOID="IT.OE.OETEST" Value="Interpretation"/>
      <ItemData ItemOID="IT.OE.OEORRES" Value="NORMAL"/>
      <ItemData ItemOID="IT.OE.OESTRESC" Value="NORMAL"/>
      <ItemData ItemOID="IT.OE.OELOC" Value="EYE"/>
      <ItemData ItemOID="IT.OE.OELAT" Value="RIGHT"/>
      <ItemData ItemOID="IT.OE.OEMETHOD" Value="SLIT LAMP"/>
      <ItemData ItemOID="IT.OE.VISITNUM" Value="2"/>
      <ItemData ItemOID="IT.OE.VISIT" Value="SCREENING 2"/>
      <ItemData ItemOID="IT.OE.EPOCH" Value="SCREENING"/>
      <ItemData ItemOID="IT.OE.OEDTC" Value="2012-11-28"/>
      <ItemData ItemOID="IT.OE.OEDY" Value="-2"/>
    </ItemGroupData>
    <ItemGroupData ItemGroupOID="IG.OE" data:ItemGroupDataSeq="5">
      <ItemData ItemOID="IT.OE.STUDYID" Value="CDISCPILOT01"/>
      <ItemData ItemOID="IT.OE.DOMAIN" Value="OE"/>
      <ItemData ItemOID="IT.OE.USUBJID" Value="CDISC001"/>
      <ItemData ItemOID="IT.OE.FOCID" Value="OS"/>
      <ItemData ItemOID="IT.OE.OESEQ" Value="5"/>
      <ItemData ItemOID="IT.OE.OETESTCD" Value="INTP"/>
      <ItemData ItemOID="IT.OE.OETEST" Value="Interpretation"/>
      <ItemData ItemOID="IT.OE.OEORRES" Value="ABNORMAL"/>
      <ItemData ItemOID="IT.OE.OESTRESC" Value="ABNORMAL"/>
      <ItemData ItemOID="IT.OE.OELOC" Value="EYE"/>
      <ItemData ItemOID="IT.OE.OELAT" Value="LEFT"/>
      <ItemData ItemOID="IT.OE.OEMETHOD" Value="SLIT LAMP"/>
      <ItemData ItemOID="IT.OE.VISITNUM" Value="2"/>
      <ItemData ItemOID="IT.OE.VISIT" Value="SCREENING 2"/>
      <ItemData ItemOID="IT.OE.EPOCH" Value="SCREENING"/>
      <ItemData ItemOID="IT.OE.OEDTC" Value="2012-11-28"/>
      <ItemData ItemOID="IT.OE.OEDY" Value="-2"/>
    </ItemGroupData>
    <ItemGroupData ItemGroupOID="IG.OE" data:ItemGroupDataSeq="6">
      <ItemData ItemOID="IT.OE.STUDYID" Value="CDISCPILOT01"/>
      <ItemData ItemOID="IT.OE.DOMAIN" Value="OE"/>
      <ItemData ItemOID="IT.OE.USUBJID" Value="CDISC001"/>
      <ItemData ItemOID="IT.OE.FOCID" Value="OS"/>
      <ItemData ItemOID="IT.OE.OESEQ" Value="6"/>
      <ItemData ItemOID="IT.OE.OETESTCD" Value="ABDETAIL"/>
      <ItemData ItemOID="IT.OE.OETEST" Value="Abnormality Detail"/>
      <ItemData ItemOID="IT.OE.OEORRES" Value="SUPERFICIAL PUNCTATE KERATOPATHY"/>
      <ItemData ItemOID="IT.OE.OESTRESC" Value="SUPERFICIAL PUNCTATE KERATOPATHY"/>
      <ItemData ItemOID="IT.OE.OELOC" Value="CORNEA"/>
      <ItemData ItemOID="IT.OE.OELAT" Value="LEFT"/>
      <ItemData ItemOID="IT.OE.OEMETHOD" Value="SLIT LAMP"/>
      <ItemData ItemOID="IT.OE.VISITNUM" Value="2"/>
      <ItemData ItemOID="IT.OE.VISIT" Value="SCREENING 2"/>
      <ItemData ItemOID="IT.OE.EPOCH" Value="SCREENING"/>
      <ItemData ItemOID="IT.OE.OEDTC" Value="2012-11-28"/>
      <ItemData ItemOID="IT.OE.OEDY" Value="-2"/>
    </ItemGroupData>
    <ItemGroupData ItemGroupOID="IG.OE" data:ItemGroupDataSeq="7">
      <ItemData ItemOID="IT.OE.STUDYID" Value="CDISCPILOT01"/>
      <ItemData ItemOID="IT.OE.DOMAIN" Value="OE"/>
      <ItemData ItemOID="IT.OE.USUBJID" Value="CDISC001"/>
      <ItemData ItemOID="IT.OE.FOCID" Value="OD"/>
      <ItemData ItemOID="IT.OE.OESEQ" Value="7"/>
      <ItemData ItemOID="IT.OE.OETESTCD" Value="INTP"/>
      <ItemData ItemOID="IT.OE.OETEST" Value="Interpretation"/>
      <ItemData ItemOID="IT.OE.OEORRES" Value="NORMAL"/>
      <ItemData ItemOID="IT.OE.OESTRESC" Value="NORMAL"/>
      <ItemData ItemOID="IT.OE.OELOC" Value="EYE"/>
      <ItemData ItemOID="IT.OE.OELAT" Value="RIGHT"/>
      <ItemData ItemOID="IT.OE.OEMETHOD" Value="SLIT LAMP"/>
      <ItemData ItemOID="IT.OE.OELOBXFL" Value="Y"/>
      <ItemData ItemOID="IT.OE.VISITNUM" Value="3"/>
      <ItemData ItemOID="IT.OE.VISIT" Value="BASELINE"/>
      <ItemData ItemOID="IT.OE.EPOCH" Value="SCREENING"/>
      <ItemData ItemOID="IT.OE.OEDTC" Value="2012-11-30"/>
      <ItemData ItemOID="IT.OE.OEDY" Value="1"/>
    </ItemGroupData>
    <ItemGroupData ItemGroupOID="IG.OE" data:ItemGroupDataSeq="8">
      <ItemData ItemOID="IT.OE.STUDYID" Value="CDISCPILOT01"/>
      <ItemData ItemOID="IT.OE.DOMAIN" Value="OE"/>
      <ItemData ItemOID="IT.OE.USUBJID" Value="CDISC001"/>
      <ItemData ItemOID="IT.OE.FOCID" Value="OS"/>
      <ItemData ItemOID="IT.OE.OESEQ" Value="8"/>
      <ItemData ItemOID="IT.OE.OETESTCD" Value="INTP"/>
      <ItemData ItemOID="IT.OE.OETEST" Value="Interpretation"/>
      <ItemData ItemOID="IT.OE.OEORRES" Value="ABNORMAL"/>
      <ItemData ItemOID="IT.OE.OESTRESC" Value="ABNORMAL"/>
      <ItemData ItemOID="IT.OE.OELOC" Value="EYE"/>
      <ItemData ItemOID="IT.OE.OELAT" Value="LEFT"/>
      <ItemData ItemOID="IT.OE.OEMETHOD" Value="SLIT LAMP"/>
      <ItemData ItemOID="IT.OE.OELOBXFL" Value="Y"/>
      <ItemData ItemOID="IT.OE.VISITNUM" Value="3"/>
      <ItemData ItemOID="IT.OE.VISIT" Value="BASELINE"/>
      <ItemData ItemOID="IT.OE.EPOCH" Value="SCREENING"/>
      <ItemData ItemOID="IT.OE.OEDTC" Value="2012-11-30"/>
      <ItemData ItemOID="IT.OE.OEDY" Value="1"/>
    </ItemGroupData>
    <ItemGroupData ItemGroupOID="IG.OE" data:ItemGroupDataSeq="9">
      <ItemData ItemOID="IT.OE.STUDYID" Value="CDISCPILOT01"/>
      <ItemData ItemOID="IT.OE.DOMAIN" Value="OE"/>
      <ItemData ItemOID="IT.OE.USUBJID" Value="CDISC001"/>
      <ItemData ItemOID="IT.OE.FOCID" Value="OS"/>
      <ItemData ItemOID="IT.OE.OESEQ" Value="9"/>
      <ItemData ItemOID="IT.OE.OETESTCD" Value="ABDETAIL"/>
      <ItemData ItemOID="IT.OE.OETEST" Value="Abnormality Detail"/>
      <ItemData ItemOID="IT.OE.OEORRES" Value="SUPERFICIAL PUNCTATE KERATOPATHY"/>
      <ItemData ItemOID="IT.OE.OESTRESC" Value="SUPERFICIAL PUNCTATE KERATOPATHY"/>
      <ItemData ItemOID="IT.OE.OELOC" Value="CORNEA"/>
      <ItemData ItemOID="IT.OE.OELAT" Value="LEFT"/>
      <ItemData ItemOID="IT.OE.OEMETHOD" Value="SLIT LAMP"/>
      <ItemData ItemOID="IT.OE.VISITNUM" Value="3"/>
      <ItemData ItemOID="IT.OE.VISIT" Value="BASELINE"/>
      <ItemData ItemOID="IT.OE.EPOCH" Value="SCREENING"/>
      <ItemData ItemOID="IT.OE.OEDTC" Value="2012-11-30"/>
      <ItemData ItemOID="IT.OE.OEDY" Value="1"/>
    </ItemGroupData>
    <ItemGroupData ItemGroupOID="IG.OE" data:ItemGroupDataSeq="10">
      <ItemData ItemOID="IT.OE.STUDYID" Value="CDISCPILOT01"/>
      <ItemData ItemOID="IT.OE.DOMAIN" Value="OE"/>
      <ItemData ItemOID="IT.OE.USUBJID" Value="CDISC001"/>
      <ItemData ItemOID="IT.OE.FOCID" Value="OD"/>
      <ItemData ItemOID="IT.OE.OESEQ" Value="10"/>
      <ItemData ItemOID="IT.OE.OETESTCD" Value="INTP"/>
      <ItemData ItemOID="IT.OE.OETEST" Value="Interpretation"/>
      <ItemData ItemOID="IT.OE.OEORRES" Value="NORMAL"/>
      <ItemData ItemOID="IT.OE.OESTRESC" Value="NORMAL"/>
      <ItemData ItemOID="IT.OE.OELOC" Value="EYE"/>
      <ItemData ItemOID="IT.OE.OELAT" Value="RIGHT"/>
      <ItemData ItemOID="IT.OE.OEMETHOD" Value="SLIT LAMP"/>
      <ItemData ItemOID="IT.OE.VISITNUM" Value="4"/>
      <ItemData ItemOID="IT.OE.VISIT" Value="WEEK 2"/>
      <ItemData ItemOID="IT.OE.EPOCH" Value="TREATMENT"/>
      <ItemData ItemOID="IT.OE.OEDTC" Value="2012-12-13"/>
      <ItemData ItemOID="IT.OE.OEDY" Value="14"/>
    </ItemGroupData>
    <ItemGroupData ItemGroupOID="IG.OE" data:ItemGroupDataSeq="11">
      <ItemData ItemOID="IT.OE.STUDYID" Value="CDISCPILOT01"/>
      <ItemData ItemOID="IT.OE.DOMAIN" Value="OE"/>
      <ItemData ItemOID="IT.OE.USUBJID" Value="CDISC001"/>
      <ItemData ItemOID="IT.OE.FOCID" Value="OS"/>
      <ItemData ItemOID="IT.OE.OESEQ" Value="11"/>
      <ItemData ItemOID="IT.OE.OETESTCD" Value="INTP"/>
      <ItemData ItemOID="IT.OE.OETEST" Value="Interpretation"/>
      <ItemData ItemOID="IT.OE.OEORRES" Value="ABNORMAL"/>
      <ItemData ItemOID="IT.OE.OESTRESC" Value="ABNORMAL"/>
      <ItemData ItemOID="IT.OE.OELOC" Value="EYE"/>
      <ItemData ItemOID="IT.OE.OELAT" Value="LEFT"/>
      <ItemData ItemOID="IT.OE.OEMETHOD" Value="SLIT LAMP"/>
      <ItemData ItemOID="IT.OE.VISITNUM" Value="4"/>
      <ItemData ItemOID="IT.OE.VISIT" Value="WEEK 2"/>
      <ItemData ItemOID="IT.OE.EPOCH" Value="TREATMENT"/>
      <ItemData ItemOID="IT.OE.OEDTC" Value="2012-12-13"/>
      <ItemData ItemOID="IT.OE.OEDY" Value="14"/>
    </ItemGroupData>
    <ItemGroupData ItemGroupOID="IG.OE" data:ItemGroupDataSeq="12">
      <ItemData ItemOID="IT.OE.STUDYID" Value="CDISCPILOT01"/>
      <ItemData ItemOID="IT.OE.DOMAIN" Value="OE"/>
      <ItemData ItemOID="IT.OE.USUBJID" Value="CDISC001"/>
      <ItemData ItemOID="IT.OE.FOCID" Value="OS"/>
      <ItemData ItemOID="IT.OE.OESEQ" Value="12"/>
      <ItemData ItemOID="IT.OE.OETESTCD" Value="ABDETAIL"/>
      <ItemData ItemOID="IT.OE.OETEST" Value="Abnormality Detail"/>
      <ItemData ItemOID="IT.OE.OEORRES" Value="SUPERFICIAL PUNCTATE KERATOPATHY"/>
      <ItemData ItemOID="IT.OE.OESTRESC" Value="SUPERFICIAL PUNCTATE KERATOPATHY"/>
      <ItemData ItemOID="IT.OE.OELOC" Value="CORNEA"/>
      <ItemData ItemOID="IT.OE.OELAT" Value="LEFT"/>
      <ItemData ItemOID="IT.OE.OEMETHOD" Value="SLIT LAMP"/>
      <ItemData ItemOID="IT.OE.VISITNUM" Value="4"/>
      <ItemData ItemOID="IT.OE.VISIT" Value="WEEK 2"/>
      <ItemData ItemOID="IT.OE.EPOCH" Value="TREATMENT"/>
      <ItemData ItemOID="IT.OE.OEDTC" Value="2012-12-13"/>
      <ItemData ItemOID="IT.OE.OEDY" Value="14"/>
    </ItemGroupData>
    <ItemGroupData ItemGroupOID="IG.OE" data:ItemGroupDataSeq="13">
      <ItemData ItemOID="IT.OE.STUDYID" Value="CDISCPILOT01"/>
      <ItemData ItemOID="IT.OE.DOMAIN" Value="OE"/>
      <ItemData ItemOID="IT.OE.USUBJID" Value="CDISC001"/>
      <ItemData ItemOID="IT.OE.FOCID" Value="OD"/>
      <ItemData ItemOID="IT.OE.OESEQ" Value="13"/>
      <ItemData ItemOID="IT.OE.OETESTCD" Value="INTP"/>
      <ItemData ItemOID="IT.OE.OETEST" Value="Interpretation"/>
      <ItemData ItemOID="IT.OE.OEORRES" Value="NORMAL"/>
      <ItemData ItemOID="IT.OE.OESTRESC" Value="NORMAL"/>
      <ItemData ItemOID="IT.OE.OELOC" Value="EYE"/>
      <ItemData ItemOID="IT.OE.OELAT" Value="RIGHT"/>
      <ItemData ItemOID="IT.OE.OEMETHOD" Value="SLIT LAMP"/>
      <ItemData ItemOID="IT.OE.VISITNUM" Value="5"/>
      <ItemData ItemOID="IT.OE.VISIT" Value="WEEK 4"/>
      <ItemData ItemOID="IT.OE.EPOCH" Value="TREATMENT"/>
      <ItemData ItemOID="IT.OE.OEDTC" Value="2012-12-26"/>
      <ItemData ItemOID="IT.OE.OEDY" Value="27"/>
    </ItemGroupData>
    <ItemGroupData ItemGroupOID="IG.OE" data:ItemGroupDataSeq="14">
      <ItemData ItemOID="IT.OE.STUDYID" Value="CDISCPILOT01"/>
      <ItemData ItemOID="IT.OE.DOMAIN" Value="OE"/>
      <ItemData ItemOID="IT.OE.USUBJID" Value="CDISC001"/>
      <ItemData ItemOID="IT.OE.FOCID" Value="OS"/>
      <ItemData ItemOID="IT.OE.OESEQ" Value="14"/>
      <ItemData ItemOID="IT.OE.OETESTCD" Value="INTP"/>
      <ItemData ItemOID="IT.OE.OETEST" Value="Interpretation"/>
      <ItemData ItemOID="IT.OE.OEORRES" Value="ABNORMAL"/>
      <ItemData ItemOID="IT.OE.OESTRESC" Value="ABNORMAL"/>
      <ItemData ItemOID="IT.OE.OELOC" Value="EYE"/>
      <ItemData ItemOID="IT.OE.OELAT" Value="LEFT"/>
      <ItemData ItemOID="IT.OE.OEMETHOD" Value="SLIT LAMP"/>
      <ItemData ItemOID="IT.OE.VISITNUM" Value="5"/>
      <ItemData ItemOID="IT.OE.VISIT" Value="WEEK 4"/>
      <ItemData ItemOID="IT.OE.EPOCH" Value="TREATMENT"/>
      <ItemData ItemOID="IT.OE.OEDTC" Value="2012-12-26"/>
      <ItemData ItemOID="IT.OE.OEDY" Value="27"/>
    </ItemGroupData>
    <ItemGroupData ItemGroupOID="IG.OE" data:ItemGroupDataSeq="15">
      <ItemData ItemOID="IT.OE.STUDYID" Value="CDISCPILOT01"/>
      <ItemData ItemOID="IT.OE.DOMAIN" Value="OE"/>
      <ItemData ItemOID="IT.OE.USUBJID" Value="CDISC001"/>
      <ItemData ItemOID="IT.OE.FOCID" Value="OS"/>
      <ItemData ItemOID="IT.OE.OESEQ" Value="15"/>
      <ItemData ItemOID="IT.OE.OETESTCD" Value="ABDETAIL"/>
      <ItemData ItemOID="IT.OE.OETEST" Value="Abnormality Detail"/>
      <ItemData ItemOID="IT.OE.OEORRES" Value="SUPERFICIAL PUNCTATE KERATOPATHY"/>
      <ItemData ItemOID="IT.OE.OESTRESC" Value="SUPERFICIAL PUNCTATE KERATOPATHY"/>
      <ItemData ItemOID="IT.OE.OELOC" Value="CORNEA"/>
      <ItemData ItemOID="IT.OE.OELAT" Value="LEFT"/>
      <ItemData ItemOID="IT.OE.OEMETHOD" Value="SLIT LAMP"/>
      <ItemData ItemOID="IT.OE.VISITNUM" Value="5"/>
      <ItemData ItemOID="IT.OE.VISIT" Value="WEEK 4"/>
      <ItemData ItemOID="IT.OE.EPOCH" Value="TREATMENT"/>
      <ItemData ItemOID="IT.OE.OEDTC" Value="2012-12-26"/>
      <ItemData ItemOID="IT.OE.OEDY" Value="27"/>
    </ItemGroupData>
    <ItemGroupData ItemGroupOID="IG.OE" data:ItemGroupDataSeq="16">
      <ItemData ItemOID="IT.OE.STUDYID" Value="CDISCPILOT01"/>
      <ItemData ItemOID="IT.OE.DOMAIN" Value="OE"/>
      <ItemData ItemOID="IT.OE.USUBJID" Value="CDISC001"/>
      <ItemData ItemOID="IT.OE.FOCID" Value="OD"/>
      <ItemData ItemOID="IT.OE.OESEQ" Value="16"/>
      <ItemData ItemOID="IT.OE.OETESTCD" Value="INTP"/>
      <ItemData ItemOID="IT.OE.OETEST" Value="Interpretation"/>
      <ItemData ItemOID="IT.OE.OEORRES" Value="NORMAL"/>
      <ItemData ItemOID="IT.OE.OESTRESC" Value="NORMAL"/>
      <ItemData ItemOID="IT.OE.OELOC" Value="EYE"/>
      <ItemData ItemOID="IT.OE.OELAT" Value="RIGHT"/>
      <ItemData ItemOID="IT.OE.OEMETHOD" Value="SLIT LAMP"/>
      <ItemData ItemOID="IT.OE.VISITNUM" Value="8"/>
      <ItemData ItemOID="IT.OE.VISIT" Value="WEEK 8"/>
      <ItemData ItemOID="IT.OE.EPOCH" Value="TREATMENT"/>
      <ItemData ItemOID="IT.OE.OEDTC" Value="2013-01-23"/>
      <ItemData ItemOID="IT.OE.OEDY" Value="55"/>
    </ItemGroupData>
    <ItemGroupData ItemGroupOID="IG.OE" data:ItemGroupDataSeq="17">
      <ItemData ItemOID="IT.OE.STUDYID" Value="CDISCPILOT01"/>
      <ItemData ItemOID="IT.OE.DOMAIN" Value="OE"/>
      <ItemData ItemOID="IT.OE.USUBJID" Value="CDISC001"/>
      <ItemData ItemOID="IT.OE.FOCID" Value="OS"/>
      <ItemData ItemOID="IT.OE.OESEQ" Value="17"/>
      <ItemData ItemOID="IT.OE.OETESTCD" Value="INTP"/>
      <ItemData ItemOID="IT.OE.OETEST" Value="Interpretation"/>
      <ItemData ItemOID="IT.OE.OEORRES" Value="ABNORMAL"/>
      <ItemData ItemOID="IT.OE.OESTRESC" Value="ABNORMAL"/>
      <ItemData ItemOID="IT.OE.OELOC" Value="EYE"/>
      <ItemData ItemOID="IT.OE.OELAT" Value="LEFT"/>
      <ItemData ItemOID="IT.OE.OEMETHOD" Value="SLIT LAMP"/>
      <ItemData ItemOID="IT.OE.VISITNUM" Value="8"/>
      <ItemData ItemOID="IT.OE.VISIT" Value="WEEK 8"/>
      <ItemData ItemOID="IT.OE.EPOCH" Value="TREATMENT"/>
      <ItemData ItemOID="IT.OE.OEDTC" Value="2013-01-23"/>
      <ItemData ItemOID="IT.OE.OEDY" Value="55"/>
    </ItemGroupData>
    <ItemGroupData ItemGroupOID="IG.OE" data:ItemGroupDataSeq="18">
      <ItemData ItemOID="IT.OE.STUDYID" Value="CDISCPILOT01"/>
      <ItemData ItemOID="IT.OE.DOMAIN" Value="OE"/>
      <ItemData ItemOID="IT.OE.USUBJID" Value="CDISC001"/>
      <ItemData ItemOID="IT.OE.FOCID" Value="OS"/>
      <ItemData ItemOID="IT.OE.OESEQ" Value="18"/>
      <ItemData ItemOID="IT.OE.OETESTCD" Value="ABDETAIL"/>
      <ItemData ItemOID="IT.OE.OETEST" Value="Abnormality Detail"/>
      <ItemData ItemOID="IT.OE.OEORRES" Value="SUPERFICIAL PUNCTATE KERATOPATHY"/>
      <ItemData ItemOID="IT.OE.OESTRESC" Value="SUPERFICIAL PUNCTATE KERATOPATHY"/>
      <ItemData ItemOID="IT.OE.OELOC" Value="CORNEA"/>
      <ItemData ItemOID="IT.OE.OELAT" Value="LEFT"/>
      <ItemData ItemOID="IT.OE.OEMETHOD" Value="SLIT LAMP"/>
      <ItemData ItemOID="IT.OE.VISITNUM" Value="8"/>
      <ItemData ItemOID="IT.OE.VISIT" Value="WEEK 8"/>
      <ItemData ItemOID="IT.OE.EPOCH" Value="TREATMENT"/>
      <ItemData ItemOID="IT.OE.OEDTC" Value="2013-01-23"/>
      <ItemData ItemOID="IT.OE.OEDY" Value="55"/>
    </ItemGroupData>
    <ItemGroupData ItemGroupOID="IG.OE" data:ItemGroupDataSeq="19">
      <ItemData ItemOID="IT.OE.STUDYID" Value="CDISCPILOT01"/>
      <ItemData ItemOID="IT.OE.DOMAIN" Value="OE"/>
      <ItemData ItemOID="IT.OE.USUBJID" Value="CDISC001"/>
      <ItemData ItemOID="IT.OE.FOCID" Value="OD"/>
      <ItemData ItemOID="IT.OE.OESEQ" Value="19"/>
      <ItemData ItemOID="IT.OE.OETESTCD" Value="INTP"/>
      <ItemData ItemOID="IT.OE.OETEST" Value="Interpretation"/>
      <ItemData ItemOID="IT.OE.OEORRES" Value="NORMAL"/>
      <ItemData ItemOID="IT.OE.OESTRESC" Value="NORMAL"/>
      <ItemData ItemOID="IT.OE.OELOC" Value="EYE"/>
      <ItemData ItemOID="IT.OE.OELAT" Value="RIGHT"/>
      <ItemData ItemOID="IT.OE.OEMETHOD" Value="SLIT LAMP"/>
      <ItemData ItemOID="IT.OE.VISITNUM" Value="201"/>
      <ItemData ItemOID="IT.OE.VISIT" Value="EARLY DISCONTINUATION RETRIEVAL"/>
      <ItemData ItemOID="IT.OE.EPOCH" Value="TREATMENT"/>
      <ItemData ItemOID="IT.OE.OEDTC" Value="2013-05-20"/>
      <ItemData ItemOID="IT.OE.OEDY" Value="172"/>
    </ItemGroupData>
    <ItemGroupData ItemGroupOID="IG.OE" data:ItemGroupDataSeq="20">
      <ItemData ItemOID="IT.OE.STUDYID" Value="CDISCPILOT01"/>
      <ItemData ItemOID="IT.OE.DOMAIN" Value="OE"/>
      <ItemData ItemOID="IT.OE.USUBJID" Value="CDISC001"/>
      <ItemData ItemOID="IT.OE.FOCID" Value="OS"/>
      <ItemData ItemOID="IT.OE.OESEQ" Value="20"/>
      <ItemData ItemOID="IT.OE.OETESTCD" Value="INTP"/>
      <ItemData ItemOID="IT.OE.OETEST" Value="Interpretation"/>
      <ItemData ItemOID="IT.OE.OEORRES" Value="ABNORMAL"/>
      <ItemData ItemOID="IT.OE.OESTRESC" Value="ABNORMAL"/>
      <ItemData ItemOID="IT.OE.OELOC" Value="EYE"/>
      <ItemData ItemOID="IT.OE.OELAT" Value="LEFT"/>
      <ItemData ItemOID="IT.OE.OEMETHOD" Value="SLIT LAMP"/>
      <ItemData ItemOID="IT.OE.VISITNUM" Value="201"/>
      <ItemData ItemOID="IT.OE.VISIT" Value="EARLY DISCONTINUATION RETRIEVAL"/>
      <ItemData ItemOID="IT.OE.EPOCH" Value="TREATMENT"/>
      <ItemData ItemOID="IT.OE.OEDTC" Value="2013-05-20"/>
      <ItemData ItemOID="IT.OE.OEDY" Value="172"/>
    </ItemGroupData>
    <ItemGroupData ItemGroupOID="IG.OE" data:ItemGroupDataSeq="21">
      <ItemData ItemOID="IT.OE.STUDYID" Value="CDISCPILOT01"/>
      <ItemData ItemOID="IT.OE.DOMAIN" Value="OE"/>
      <ItemData ItemOID="IT.OE.USUBJID" Value="CDISC001"/>
      <ItemData ItemOID="IT.OE.FOCID" Value="OS"/>
      <ItemData ItemOID="IT.OE.OESEQ" Value="21"/>
      <ItemData ItemOID="IT.OE.OETESTCD" Value="ABDETAIL"/>
      <ItemData ItemOID="IT.OE.OETEST" Value="Abnormality Detail"/>
      <ItemData ItemOID="IT.OE.OEORRES" Value="SUPERFICIAL PUNCTATE KERATOPATHY"/>
      <ItemData ItemOID="IT.OE.OESTRESC" Value="SUPERFICIAL PUNCTATE KERATOPATHY"/>
      <ItemData ItemOID="IT.OE.OELOC" Value="CORNEA"/>
      <ItemData ItemOID="IT.OE.OELAT" Value="LEFT"/>
      <ItemData ItemOID="IT.OE.OEMETHOD" Value="SLIT LAMP"/>
      <ItemData ItemOID="IT.OE.VISITNUM" Value="201"/>
      <ItemData ItemOID="IT.OE.VISIT" Value="EARLY DISCONTINUATION RETRIEVAL"/>
      <ItemData ItemOID="IT.OE.EPOCH" Value="TREATMENT"/>
      <ItemData ItemOID="IT.OE.OEDTC" Value="2013-05-20"/>
      <ItemData ItemOID="IT.OE.OEDY" Value="172"/>
    </ItemGroupData>
    <ItemGroupData ItemGroupOID="IG.OE" data:ItemGroupDataSeq="22">
      <ItemData ItemOID="IT.OE.STUDYID" Value="CDISCPILOT01"/>
      <ItemData ItemOID="IT.OE.DOMAIN" Value="OE"/>
      <ItemData ItemOID="IT.OE.USUBJID" Value="CDISC002"/>
      <ItemData ItemOID="IT.OE.FOCID" Value="OD"/>
      <ItemData ItemOID="IT.OE.OESEQ" Value="1"/>
      <ItemData ItemOID="IT.OE.OETESTCD" Value="INTP"/>
      <ItemData ItemOID="IT.OE.OETEST" Value="Interpretation"/>
      <ItemData ItemOID="IT.OE.OEORRES" Value="NORMAL"/>
      <ItemData ItemOID="IT.OE.OESTRESC" Value="NORMAL"/>
      <ItemData ItemOID="IT.OE.OELOC" Value="EYE"/>
      <ItemData ItemOID="IT.OE.OELAT" Value="RIGHT"/>
      <ItemData ItemOID="IT.OE.OEMETHOD" Value="SLIT LAMP"/>
      <ItemData ItemOID="IT.OE.VISITNUM" Value="1"/>
      <ItemData ItemOID="IT.OE.VISIT" Value="SCREENING 1"/>
      <ItemData ItemOID="IT.OE.EPOCH" Value="SCREENING"/>
      <ItemData ItemOID="IT.OE.OEDTC" Value="2012-10-30"/>
      <ItemData ItemOID="IT.OE.OEDY" Value="-16"/>
    </ItemGroupData>
    <ItemGroupData ItemGroupOID="IG.OE" data:ItemGroupDataSeq="23">
      <ItemData ItemOID="IT.OE.STUDYID" Value="CDISCPILOT01"/>
      <ItemData ItemOID="IT.OE.DOMAIN" Value="OE"/>
      <ItemData ItemOID="IT.OE.USUBJID" Value="CDISC002"/>
      <ItemData ItemOID="IT.OE.FOCID" Value="OS"/>
      <ItemData ItemOID="IT.OE.OESEQ" Value="2"/>
      <ItemData ItemOID="IT.OE.OETESTCD" Value="INTP"/>
      <ItemData ItemOID="IT.OE.OETEST" Value="Interpretation"/>
      <ItemData ItemOID="IT.OE.OEORRES" Value="NORMAL"/>
      <ItemData ItemOID="IT.OE.OESTRESC" Value="NORMAL"/>
      <ItemData ItemOID="IT.OE.OELOC" Value="EYE"/>
      <ItemData ItemOID="IT.OE.OELAT" Value="LEFT"/>
      <ItemData ItemOID="IT.OE.OEMETHOD" Value="SLIT LAMP"/>
      <ItemData ItemOID="IT.OE.VISITNUM" Value="1"/>
      <ItemData ItemOID="IT.OE.VISIT" Value="SCREENING 1"/>
      <ItemData ItemOID="IT.OE.EPOCH" Value="SCREENING"/>
      <ItemData ItemOID="IT.OE.OEDTC" Value="2012-10-30"/>
      <ItemData ItemOID="IT.OE.OEDY" Value="-16"/>
    </ItemGroupData>
    <ItemGroupData ItemGroupOID="IG.OE" data:ItemGroupDataSeq="24">
      <ItemData ItemOID="IT.OE.STUDYID" Value="CDISCPILOT01"/>
      <ItemData ItemOID="IT.OE.DOMAIN" Value="OE"/>
      <ItemData ItemOID="IT.OE.USUBJID" Value="CDISC002"/>
      <ItemData ItemOID="IT.OE.FOCID" Value="OD"/>
      <ItemData ItemOID="IT.OE.OESEQ" Value="3"/>
      <ItemData ItemOID="IT.OE.OETESTCD" Value="INTP"/>
      <ItemData ItemOID="IT.OE.OETEST" Value="Interpretation"/>
      <ItemData ItemOID="IT.OE.OEORRES" Value="NORMAL"/>
      <ItemData ItemOID="IT.OE.OESTRESC" Value="NORMAL"/>
      <ItemData ItemOID="IT.OE.OELOC" Value="EYE"/>
      <ItemData ItemOID="IT.OE.OELAT" Value="RIGHT"/>
      <ItemData ItemOID="IT.OE.OEMETHOD" Value="SLIT LAMP"/>
      <ItemData ItemOID="IT.OE.VISITNUM" Value="2"/>
      <ItemData ItemOID="IT.OE.VISIT" Value="SCREENING 2"/>
      <ItemData ItemOID="IT.OE.EPOCH" Value="SCREENING"/>
      <ItemData ItemOID="IT.OE.OEDTC" Value="2012-11-14"/>
      <ItemData ItemOID="IT.OE.OEDY" Value="-1"/>
    </ItemGroupData>
    <ItemGroupData ItemGroupOID="IG.OE" data:ItemGroupDataSeq="25">
      <ItemData ItemOID="IT.OE.STUDYID" Value="CDISCPILOT01"/>
      <ItemData ItemOID="IT.OE.DOMAIN" Value="OE"/>
      <ItemData ItemOID="IT.OE.USUBJID" Value="CDISC002"/>
      <ItemData ItemOID="IT.OE.FOCID" Value="OS"/>
      <ItemData ItemOID="IT.OE.OESEQ" Value="4"/>
      <ItemData ItemOID="IT.OE.OETESTCD" Value="INTP"/>
      <ItemData ItemOID="IT.OE.OETEST" Value="Interpretation"/>
      <ItemData ItemOID="IT.OE.OEORRES" Value="NORMAL"/>
      <ItemData ItemOID="IT.OE.OESTRESC" Value="NORMAL"/>
      <ItemData ItemOID="IT.OE.OELOC" Value="EYE"/>
      <ItemData ItemOID="IT.OE.OELAT" Value="LEFT"/>
      <ItemData ItemOID="IT.OE.OEMETHOD" Value="SLIT LAMP"/>
      <ItemData ItemOID="IT.OE.VISITNUM" Value="2"/>
      <ItemData ItemOID="IT.OE.VISIT" Value="SCREENING 2"/>
      <ItemData ItemOID="IT.OE.EPOCH" Value="SCREENING"/>
      <ItemData ItemOID="IT.OE.OEDTC" Value="2012-11-14"/>
      <ItemData ItemOID="IT.OE.OEDY" Value="-1"/>
    </ItemGroupData>
    <ItemGroupData ItemGroupOID="IG.OE" data:ItemGroupDataSeq="26">
      <ItemData ItemOID="IT.OE.STUDYID" Value="CDISCPILOT01"/>
      <ItemData ItemOID="IT.OE.DOMAIN" Value="OE"/>
      <ItemData ItemOID="IT.OE.USUBJID" Value="CDISC002"/>
      <ItemData ItemOID="IT.OE.FOCID" Value="OD"/>
      <ItemData ItemOID="IT.OE.OESEQ" Value="5"/>
      <ItemData ItemOID="IT.OE.OETESTCD" Value="INTP"/>
      <ItemData ItemOID="IT.OE.OETEST" Value="Interpretation"/>
      <ItemData ItemOID="IT.OE.OEORRES" Value="NORMAL"/>
      <ItemData ItemOID="IT.OE.OESTRESC" Value="NORMAL"/>
      <ItemData ItemOID="IT.OE.OELOC" Value="EYE"/>
      <ItemData ItemOID="IT.OE.OELAT" Value="RIGHT"/>
      <ItemData ItemOID="IT.OE.OEMETHOD" Value="SLIT LAMP"/>
      <ItemData ItemOID="IT.OE.OELOBXFL" Value="Y"/>
      <ItemData ItemOID="IT.OE.VISITNUM" Value="3"/>
      <ItemData ItemOID="IT.OE.VISIT" Value="BASELINE"/>
      <ItemData ItemOID="IT.OE.EPOCH" Value="SCREENING"/>
      <ItemData ItemOID="IT.OE.OEDTC" Value="2012-11-15"/>
      <ItemData ItemOID="IT.OE.OEDY" Value="1"/>
    </ItemGroupData>
    <ItemGroupData ItemGroupOID="IG.OE" data:ItemGroupDataSeq="27">
      <ItemData ItemOID="IT.OE.STUDYID" Value="CDISCPILOT01"/>
      <ItemData ItemOID="IT.OE.DOMAIN" Value="OE"/>
      <ItemData ItemOID="IT.OE.USUBJID" Value="CDISC002"/>
      <ItemData ItemOID="IT.OE.FOCID" Value="OS"/>
      <ItemData ItemOID="IT.OE.OESEQ" Value="6"/>
      <ItemData ItemOID="IT.OE.OETESTCD" Value="INTP"/>
      <ItemData ItemOID="IT.OE.OETEST" Value="Interpretation"/>
      <ItemData ItemOID="IT.OE.OEORRES" Value="NORMAL"/>
      <ItemData ItemOID="IT.OE.OESTRESC" Value="NORMAL"/>
      <ItemData ItemOID="IT.OE.OELOC" Value="EYE"/>
      <ItemData ItemOID="IT.OE.OELAT" Value="LEFT"/>
      <ItemData ItemOID="IT.OE.OEMETHOD" Value="SLIT LAMP"/>
      <ItemData ItemOID="IT.OE.OELOBXFL" Value="Y"/>
      <ItemData ItemOID="IT.OE.VISITNUM" Value="3"/>
      <ItemData ItemOID="IT.OE.VISIT" Value="BASELINE"/>
      <ItemData ItemOID="IT.OE.EPOCH" Value="SCREENING"/>
      <ItemData ItemOID="IT.OE.OEDTC" Value="2012-11-15"/>
      <ItemData ItemOID="IT.OE.OEDY" Value="1"/>
    </ItemGroupData>
    <ItemGroupData ItemGroupOID="IG.OE" data:ItemGroupDataSeq="28">
      <ItemData ItemOID="IT.OE.STUDYID" Value="CDISCPILOT01"/>
      <ItemData ItemOID="IT.OE.DOMAIN" Value="OE"/>
      <ItemData ItemOID="IT.OE.USUBJID" Value="CDISC002"/>
      <ItemData ItemOID="IT.OE.FOCID" Value="OD"/>
      <ItemData ItemOID="IT.OE.OESEQ" Value="7"/>
      <ItemData ItemOID="IT.OE.OETESTCD" Value="INTP"/>
      <ItemData ItemOID="IT.OE.OETEST" Value="Interpretation"/>
      <ItemData ItemOID="IT.OE.OEORRES" Value="NORMAL"/>
      <ItemData ItemOID="IT.OE.OESTRESC" Value="NORMAL"/>
      <ItemData ItemOID="IT.OE.OELOC" Value="EYE"/>
      <ItemData ItemOID="IT.OE.OELAT" Value="RIGHT"/>
      <ItemData ItemOID="IT.OE.OEMETHOD" Value="SLIT LAMP"/>
      <ItemData ItemOID="IT.OE.VISITNUM" Value="4"/>
      <ItemData ItemOID="IT.OE.VISIT" Value="WEEK 2"/>
      <ItemData ItemOID="IT.OE.EPOCH" Value="TREATMENT"/>
      <ItemData ItemOID="IT.OE.OEDTC" Value="2012-11-28"/>
      <ItemData ItemOID="IT.OE.OEDY" Value="14"/>
    </ItemGroupData>
    <ItemGroupData ItemGroupOID="IG.OE" data:ItemGroupDataSeq="29">
      <ItemData ItemOID="IT.OE.STUDYID" Value="CDISCPILOT01"/>
      <ItemData ItemOID="IT.OE.DOMAIN" Value="OE"/>
      <ItemData ItemOID="IT.OE.USUBJID" Value="CDISC002"/>
      <ItemData ItemOID="IT.OE.FOCID" Value="OS"/>
      <ItemData ItemOID="IT.OE.OESEQ" Value="8"/>
      <ItemData ItemOID="IT.OE.OETESTCD" Value="INTP"/>
      <ItemData ItemOID="IT.OE.OETEST" Value="Interpretation"/>
      <ItemData ItemOID="IT.OE.OEORRES" Value="NORMAL"/>
      <ItemData ItemOID="IT.OE.OESTRESC" Value="NORMAL"/>
      <ItemData ItemOID="IT.OE.OELOC" Value="EYE"/>
      <ItemData ItemOID="IT.OE.OELAT" Value="LEFT"/>
      <ItemData ItemOID="IT.OE.OEMETHOD" Value="SLIT LAMP"/>
      <ItemData ItemOID="IT.OE.VISITNUM" Value="4"/>
      <ItemData ItemOID="IT.OE.VISIT" Value="WEEK 2"/>
      <ItemData ItemOID="IT.OE.EPOCH" Value="TREATMENT"/>
      <ItemData ItemOID="IT.OE.OEDTC" Value="2012-11-28"/>
      <ItemData ItemOID="IT.OE.OEDY" Value="14"/>
    </ItemGroupData>
    <ItemGroupData ItemGroupOID="IG.OE" data:ItemGroupDataSeq="30">
      <ItemData ItemOID="IT.OE.STUDYID" Value="CDISCPILOT01"/>
      <ItemData ItemOID="IT.OE.DOMAIN" Value="OE"/>
      <ItemData ItemOID="IT.OE.USUBJID" Value="CDISC002"/>
      <ItemData ItemOID="IT.OE.FOCID" Value="OD"/>
      <ItemData ItemOID="IT.OE.OESEQ" Value="9"/>
      <ItemData ItemOID="IT.OE.OETESTCD" Value="INTP"/>
      <ItemData ItemOID="IT.OE.OETEST" Value="Interpretation"/>
      <ItemData ItemOID="IT.OE.OEORRES" Value="NORMAL"/>
      <ItemData ItemOID="IT.OE.OESTRESC" Value="NORMAL"/>
      <ItemData ItemOID="IT.OE.OELOC" Value="EYE"/>
      <ItemData ItemOID="IT.OE.OELAT" Value="RIGHT"/>
      <ItemData ItemOID="IT.OE.OEMETHOD" Value="SLIT LAMP"/>
      <ItemData ItemOID="IT.OE.VISITNUM" Value="5"/>
      <ItemData ItemOID="IT.OE.VISIT" Value="WEEK 4"/>
      <ItemData ItemOID="IT.OE.EPOCH" Value="TREATMENT"/>
      <ItemData ItemOID="IT.OE.OEDTC" Value="2012-12-11"/>
      <ItemData ItemOID="IT.OE.OEDY" Value="27"/>
    </ItemGroupData>
    <ItemGroupData ItemGroupOID="IG.OE" data:ItemGroupDataSeq="31">
      <ItemData ItemOID="IT.OE.STUDYID" Value="CDISCPILOT01"/>
      <ItemData ItemOID="IT.OE.DOMAIN" Value="OE"/>
      <ItemData ItemOID="IT.OE.USUBJID" Value="CDISC002"/>
      <ItemData ItemOID="IT.OE.FOCID" Value="OS"/>
      <ItemData ItemOID="IT.OE.OESEQ" Value="10"/>
      <ItemData ItemOID="IT.OE.OETESTCD" Value="INTP"/>
      <ItemData ItemOID="IT.OE.OETEST" Value="Interpretation"/>
      <ItemData ItemOID="IT.OE.OEORRES" Value="NORMAL"/>
      <ItemData ItemOID="IT.OE.OESTRESC" Value="NORMAL"/>
      <ItemData ItemOID="IT.OE.OELOC" Value="EYE"/>
      <ItemData ItemOID="IT.OE.OELAT" Value="LEFT"/>
      <ItemData ItemOID="IT.OE.OEMETHOD" Value="SLIT LAMP"/>
      <ItemData ItemOID="IT.OE.VISITNUM" Value="5"/>
      <ItemData ItemOID="IT.OE.VISIT" Value="WEEK 4"/>
      <ItemData ItemOID="IT.OE.EPOCH" Value="TREATMENT"/>
      <ItemData ItemOID="IT.OE.OEDTC" Value="2012-12-11"/>
      <ItemData ItemOID="IT.OE.OEDY" Value="27"/>
    </ItemGroupData>
    <ItemGroupData ItemGroupOID="IG.OE" data:ItemGroupDataSeq="32">
      <ItemData ItemOID="IT.OE.STUDYID" Value="CDISCPILOT01"/>
      <ItemData ItemOID="IT.OE.DOMAIN" Value="OE"/>
      <ItemData ItemOID="IT.OE.USUBJID" Value="CDISC002"/>
      <ItemData ItemOID="IT.OE.FOCID" Value="OD"/>
      <ItemData ItemOID="IT.OE.OESEQ" Value="11"/>
      <ItemData ItemOID="IT.OE.OETESTCD" Value="INTP"/>
      <ItemData ItemOID="IT.OE.OETEST" Value="Interpretation"/>
      <ItemData ItemOID="IT.OE.OEORRES" Value="NORMAL"/>
      <ItemData ItemOID="IT.OE.OESTRESC" Value="NORMAL"/>
      <ItemData ItemOID="IT.OE.OELOC" Value="EYE"/>
      <ItemData ItemOID="IT.OE.OELAT" Value="RIGHT"/>
      <ItemData ItemOID="IT.OE.OEMETHOD" Value="SLIT LAMP"/>
      <ItemData ItemOID="IT.OE.VISITNUM" Value="8"/>
      <ItemData ItemOID="IT.OE.VISIT" Value="WEEK 8"/>
      <ItemData ItemOID="IT.OE.EPOCH" Value="TREATMENT"/>
      <ItemData ItemOID="IT.OE.OEDTC" Value="2013-01-08"/>
      <ItemData ItemOID="IT.OE.OEDY" Value="55"/>
    </ItemGroupData>
    <ItemGroupData ItemGroupOID="IG.OE" data:ItemGroupDataSeq="33">
      <ItemData ItemOID="IT.OE.STUDYID" Value="CDISCPILOT01"/>
      <ItemData ItemOID="IT.OE.DOMAIN" Value="OE"/>
      <ItemData ItemOID="IT.OE.USUBJID" Value="CDISC002"/>
      <ItemData ItemOID="IT.OE.FOCID" Value="OS"/>
      <ItemData ItemOID="IT.OE.OESEQ" Value="12"/>
      <ItemData ItemOID="IT.OE.OETESTCD" Value="INTP"/>
      <ItemData ItemOID="IT.OE.OETEST" Value="Interpretation"/>
      <ItemData ItemOID="IT.OE.OEORRES" Value="NORMAL"/>
      <ItemData ItemOID="IT.OE.OESTRESC" Value="NORMAL"/>
      <ItemData ItemOID="IT.OE.OELOC" Value="EYE"/>
      <ItemData ItemOID="IT.OE.OELAT" Value="LEFT"/>
      <ItemData ItemOID="IT.OE.OEMETHOD" Value="SLIT LAMP"/>
      <ItemData ItemOID="IT.OE.VISITNUM" Value="8"/>
      <ItemData ItemOID="IT.OE.VISIT" Value="WEEK 8"/>
      <ItemData ItemOID="IT.OE.EPOCH" Value="TREATMENT"/>
      <ItemData ItemOID="IT.OE.OEDTC" Value="2013-01-08"/>
      <ItemData ItemOID="IT.OE.OEDY" Value="55"/>
    </ItemGroupData>
    <ItemGroupData ItemGroupOID="IG.OE" data:ItemGroupDataSeq="34">
      <ItemData ItemOID="IT.OE.STUDYID" Value="CDISCPILOT01"/>
      <ItemData ItemOID="IT.OE.DOMAIN" Value="OE"/>
      <ItemData ItemOID="IT.OE.USUBJID" Value="CDISC003"/>
      <ItemData ItemOID="IT.OE.FOCID" Value="OD"/>
      <ItemData ItemOID="IT.OE.OESEQ" Value="1"/>
      <ItemData ItemOID="IT.OE.OETESTCD" Value="INTP"/>
      <ItemData ItemOID="IT.OE.OETEST" Value="Interpretation"/>
      <ItemData ItemOID="IT.OE.OEORRES" Value="NORMAL"/>
      <ItemData ItemOID="IT.OE.OESTRESC" Value="NORMAL"/>
      <ItemData ItemOID="IT.OE.OELOC" Value="EYE"/>
      <ItemData ItemOID="IT.OE.OELAT" Value="RIGHT"/>
      <ItemData ItemOID="IT.OE.OEMETHOD" Value="SLIT LAMP"/>
      <ItemData ItemOID="IT.OE.VISITNUM" Value="1"/>
      <ItemData ItemOID="IT.OE.VISIT" Value="SCREENING 1"/>
      <ItemData ItemOID="IT.OE.EPOCH" Value="SCREENING"/>
      <ItemData ItemOID="IT.OE.OEDTC" Value="2013-08-20"/>
      <ItemData ItemOID="IT.OE.OEDY" Value="-9"/>
    </ItemGroupData>
    <ItemGroupData ItemGroupOID="IG.OE" data:ItemGroupDataSeq="35">
      <ItemData ItemOID="IT.OE.STUDYID" Value="CDISCPILOT01"/>
      <ItemData ItemOID="IT.OE.DOMAIN" Value="OE"/>
      <ItemData ItemOID="IT.OE.USUBJID" Value="CDISC003"/>
      <ItemData ItemOID="IT.OE.FOCID" Value="OS"/>
      <ItemData ItemOID="IT.OE.OESEQ" Value="2"/>
      <ItemData ItemOID="IT.OE.OETESTCD" Value="INTP"/>
      <ItemData ItemOID="IT.OE.OETEST" Value="Interpretation"/>
      <ItemData ItemOID="IT.OE.OEORRES" Value="NORMAL"/>
      <ItemData ItemOID="IT.OE.OESTRESC" Value="NORMAL"/>
      <ItemData ItemOID="IT.OE.OELOC" Value="EYE"/>
      <ItemData ItemOID="IT.OE.OELAT" Value="LEFT"/>
      <ItemData ItemOID="IT.OE.OEMETHOD" Value="SLIT LAMP"/>
      <ItemData ItemOID="IT.OE.VISITNUM" Value="1"/>
      <ItemData ItemOID="IT.OE.VISIT" Value="SCREENING 1"/>
      <ItemData ItemOID="IT.OE.EPOCH" Value="SCREENING"/>
      <ItemData ItemOID="IT.OE.OEDTC" Value="2013-08-20"/>
      <ItemData ItemOID="IT.OE.OEDY" Value="-9"/>
    </ItemGroupData>
    <ItemGroupData ItemGroupOID="IG.OE" data:ItemGroupDataSeq="36">
      <ItemData ItemOID="IT.OE.STUDYID" Value="CDISCPILOT01"/>
      <ItemData ItemOID="IT.OE.DOMAIN" Value="OE"/>
      <ItemData ItemOID="IT.OE.USUBJID" Value="CDISC003"/>
      <ItemData ItemOID="IT.OE.FOCID" Value="OD"/>
      <ItemData ItemOID="IT.OE.OESEQ" Value="3"/>
      <ItemData ItemOID="IT.OE.OETESTCD" Value="INTP"/>
      <ItemData ItemOID="IT.OE.OETEST" Value="Interpretation"/>
      <ItemData ItemOID="IT.OE.OEORRES" Value="NORMAL"/>
      <ItemData ItemOID="IT.OE.OESTRESC" Value="NORMAL"/>
      <ItemData ItemOID="IT.OE.OELOC" Value="EYE"/>
      <ItemData ItemOID="IT.OE.OELAT" Value="RIGHT"/>
      <ItemData ItemOID="IT.OE.OEMETHOD" Value="SLIT LAMP"/>
      <ItemData ItemOID="IT.OE.VISITNUM" Value="2"/>
      <ItemData ItemOID="IT.OE.VISIT" Value="SCREENING 2"/>
      <ItemData ItemOID="IT.OE.EPOCH" Value="SCREENING"/>
      <ItemData ItemOID="IT.OE.OEDTC" Value="2013-08-27"/>
      <ItemData ItemOID="IT.OE.OEDY" Value="-2"/>
    </ItemGroupData>
    <ItemGroupData ItemGroupOID="IG.OE" data:ItemGroupDataSeq="37">
      <ItemData ItemOID="IT.OE.STUDYID" Value="CDISCPILOT01"/>
      <ItemData ItemOID="IT.OE.DOMAIN" Value="OE"/>
      <ItemData ItemOID="IT.OE.USUBJID" Value="CDISC003"/>
      <ItemData ItemOID="IT.OE.FOCID" Value="OS"/>
      <ItemData ItemOID="IT.OE.OESEQ" Value="4"/>
      <ItemData ItemOID="IT.OE.OETESTCD" Value="INTP"/>
      <ItemData ItemOID="IT.OE.OETEST" Value="Interpretation"/>
      <ItemData ItemOID="IT.OE.OEORRES" Value="NORMAL"/>
      <ItemData ItemOID="IT.OE.OESTRESC" Value="NORMAL"/>
      <ItemData ItemOID="IT.OE.OELOC" Value="EYE"/>
      <ItemData ItemOID="IT.OE.OELAT" Value="LEFT"/>
      <ItemData ItemOID="IT.OE.OEMETHOD" Value="SLIT LAMP"/>
      <ItemData ItemOID="IT.OE.VISITNUM" Value="2"/>
      <ItemData ItemOID="IT.OE.VISIT" Value="SCREENING 2"/>
      <ItemData ItemOID="IT.OE.EPOCH" Value="SCREENING"/>
      <ItemData ItemOID="IT.OE.OEDTC" Value="2013-08-27"/>
      <ItemData ItemOID="IT.OE.OEDY" Value="-2"/>
    </ItemGroupData>
    <ItemGroupData ItemGroupOID="IG.OE" data:ItemGroupDataSeq="38">
      <ItemData ItemOID="IT.OE.STUDYID" Value="CDISCPILOT01"/>
      <ItemData ItemOID="IT.OE.DOMAIN" Value="OE"/>
      <ItemData ItemOID="IT.OE.USUBJID" Value="CDISC003"/>
      <ItemData ItemOID="IT.OE.FOCID" Value="OD"/>
      <ItemData ItemOID="IT.OE.OESEQ" Value="5"/>
      <ItemData ItemOID="IT.OE.OETESTCD" Value="INTP"/>
      <ItemData ItemOID="IT.OE.OETEST" Value="Interpretation"/>
      <ItemData ItemOID="IT.OE.OEORRES" Value="NORMAL"/>
      <ItemData ItemOID="IT.OE.OESTRESC" Value="NORMAL"/>
      <ItemData ItemOID="IT.OE.OELOC" Value="EYE"/>
      <ItemData ItemOID="IT.OE.OELAT" Value="RIGHT"/>
      <ItemData ItemOID="IT.OE.OEMETHOD" Value="SLIT LAMP"/>
      <ItemData ItemOID="IT.OE.OELOBXFL" Value="Y"/>
      <ItemData ItemOID="IT.OE.VISITNUM" Value="3"/>
      <ItemData ItemOID="IT.OE.VISIT" Value="BASELINE"/>
      <ItemData ItemOID="IT.OE.EPOCH" Value="SCREENING"/>
      <ItemData ItemOID="IT.OE.OEDTC" Value="2013-08-29"/>
      <ItemData ItemOID="IT.OE.OEDY" Value="1"/>
    </ItemGroupData>
    <ItemGroupData ItemGroupOID="IG.OE" data:ItemGroupDataSeq="39">
      <ItemData ItemOID="IT.OE.STUDYID" Value="CDISCPILOT01"/>
      <ItemData ItemOID="IT.OE.DOMAIN" Value="OE"/>
      <ItemData ItemOID="IT.OE.USUBJID" Value="CDISC003"/>
      <ItemData ItemOID="IT.OE.FOCID" Value="OS"/>
      <ItemData ItemOID="IT.OE.OESEQ" Value="6"/>
      <ItemData ItemOID="IT.OE.OETESTCD" Value="INTP"/>
      <ItemData ItemOID="IT.OE.OETEST" Value="Interpretation"/>
      <ItemData ItemOID="IT.OE.OEORRES" Value="NORMAL"/>
      <ItemData ItemOID="IT.OE.OESTRESC" Value="NORMAL"/>
      <ItemData ItemOID="IT.OE.OELOC" Value="EYE"/>
      <ItemData ItemOID="IT.OE.OELAT" Value="LEFT"/>
      <ItemData ItemOID="IT.OE.OEMETHOD" Value="SLIT LAMP"/>
      <ItemData ItemOID="IT.OE.OELOBXFL" Value="Y"/>
      <ItemData ItemOID="IT.OE.VISITNUM" Value="3"/>
      <ItemData ItemOID="IT.OE.VISIT" Value="BASELINE"/>
      <ItemData ItemOID="IT.OE.EPOCH" Value="SCREENING"/>
      <ItemData ItemOID="IT.OE.OEDTC" Value="2013-08-29"/>
      <ItemData ItemOID="IT.OE.OEDY" Value="1"/>
    </ItemGroupData>
    <ItemGroupData ItemGroupOID="IG.OE" data:ItemGroupDataSeq="40">
      <ItemData ItemOID="IT.OE.STUDYID" Value="CDISCPILOT01"/>
      <ItemData ItemOID="IT.OE.DOMAIN" Value="OE"/>
      <ItemData ItemOID="IT.OE.USUBJID" Value="CDISC003"/>
      <ItemData ItemOID="IT.OE.FOCID" Value="OD"/>
      <ItemData ItemOID="IT.OE.OESEQ" Value="7"/>
      <ItemData ItemOID="IT.OE.OETESTCD" Value="INTP"/>
      <ItemData ItemOID="IT.OE.OETEST" Value="Interpretation"/>
      <ItemData ItemOID="IT.OE.OEORRES" Value="NORMAL"/>
      <ItemData ItemOID="IT.OE.OESTRESC" Value="NORMAL"/>
      <ItemData ItemOID="IT.OE.OELOC" Value="EYE"/>
      <ItemData ItemOID="IT.OE.OELAT" Value="RIGHT"/>
      <ItemData ItemOID="IT.OE.OEMETHOD" Value="SLIT LAMP"/>
      <ItemData ItemOID="IT.OE.VISITNUM" Value="4"/>
      <ItemData ItemOID="IT.OE.VISIT" Value="WEEK 2"/>
      <ItemData ItemOID="IT.OE.EPOCH" Value="TREATMENT"/>
      <ItemData ItemOID="IT.OE.OEDTC" Value="2013-09-15"/>
      <ItemData ItemOID="IT.OE.OEDY" Value="18"/>
    </ItemGroupData>
    <ItemGroupData ItemGroupOID="IG.OE" data:ItemGroupDataSeq="41">
      <ItemData ItemOID="IT.OE.STUDYID" Value="CDISCPILOT01"/>
      <ItemData ItemOID="IT.OE.DOMAIN" Value="OE"/>
      <ItemData ItemOID="IT.OE.USUBJID" Value="CDISC003"/>
      <ItemData ItemOID="IT.OE.FOCID" Value="OS"/>
      <ItemData ItemOID="IT.OE.OESEQ" Value="8"/>
      <ItemData ItemOID="IT.OE.OETESTCD" Value="INTP"/>
      <ItemData ItemOID="IT.OE.OETEST" Value="Interpretation"/>
      <ItemData ItemOID="IT.OE.OEORRES" Value="NORMAL"/>
      <ItemData ItemOID="IT.OE.OESTRESC" Value="NORMAL"/>
      <ItemData ItemOID="IT.OE.OELOC" Value="EYE"/>
      <ItemData ItemOID="IT.OE.OELAT" Value="LEFT"/>
      <ItemData ItemOID="IT.OE.OEMETHOD" Value="SLIT LAMP"/>
      <ItemData ItemOID="IT.OE.VISITNUM" Value="4"/>
      <ItemData ItemOID="IT.OE.VISIT" Value="WEEK 2"/>
      <ItemData ItemOID="IT.OE.EPOCH" Value="TREATMENT"/>
      <ItemData ItemOID="IT.OE.OEDTC" Value="2013-09-15"/>
      <ItemData ItemOID="IT.OE.OEDY" Value="18"/>
    </ItemGroupData>
    <ItemGroupData ItemGroupOID="IG.OE" data:ItemGroupDataSeq="42">
      <ItemData ItemOID="IT.OE.STUDYID" Value="CDISCPILOT01"/>
      <ItemData ItemOID="IT.OE.DOMAIN" Value="OE"/>
      <ItemData ItemOID="IT.OE.USUBJID" Value="CDISC003"/>
      <ItemData ItemOID="IT.OE.FOCID" Value="OD"/>
      <ItemData ItemOID="IT.OE.OESEQ" Value="9"/>
      <ItemData ItemOID="IT.OE.OETESTCD" Value="INTP"/>
      <ItemData ItemOID="IT.OE.OETEST" Value="Interpretation"/>
      <ItemData ItemOID="IT.OE.OEORRES" Value="NORMAL"/>
      <ItemData ItemOID="IT.OE.OESTRESC" Value="NORMAL"/>
      <ItemData ItemOID="IT.OE.OELOC" Value="EYE"/>
      <ItemData ItemOID="IT.OE.OELAT" Value="RIGHT"/>
      <ItemData ItemOID="IT.OE.OEMETHOD" Value="SLIT LAMP"/>
      <ItemData ItemOID="IT.OE.VISITNUM" Value="5"/>
      <ItemData ItemOID="IT.OE.VISIT" Value="WEEK 4"/>
      <ItemData ItemOID="IT.OE.EPOCH" Value="TREATMENT"/>
      <ItemData ItemOID="IT.OE.OEDTC" Value="2013-09-24"/>
      <ItemData ItemOID="IT.OE.OEDY" Value="27"/>
    </ItemGroupData>
    <ItemGroupData ItemGroupOID="IG.OE" data:ItemGroupDataSeq="43">
      <ItemData ItemOID="IT.OE.STUDYID" Value="CDISCPILOT01"/>
      <ItemData ItemOID="IT.OE.DOMAIN" Value="OE"/>
      <ItemData ItemOID="IT.OE.USUBJID" Value="CDISC003"/>
      <ItemData ItemOID="IT.OE.FOCID" Value="OS"/>
      <ItemData ItemOID="IT.OE.OESEQ" Value="10"/>
      <ItemData ItemOID="IT.OE.OETESTCD" Value="INTP"/>
      <ItemData ItemOID="IT.OE.OETEST" Value="Interpretation"/>
      <ItemData ItemOID="IT.OE.OEORRES" Value="NORMAL"/>
      <ItemData ItemOID="IT.OE.OESTRESC" Value="NORMAL"/>
      <ItemData ItemOID="IT.OE.OELOC" Value="EYE"/>
      <ItemData ItemOID="IT.OE.OELAT" Value="LEFT"/>
      <ItemData ItemOID="IT.OE.OEMETHOD" Value="SLIT LAMP"/>
      <ItemData ItemOID="IT.OE.VISITNUM" Value="5"/>
      <ItemData ItemOID="IT.OE.VISIT" Value="WEEK 4"/>
      <ItemData ItemOID="IT.OE.EPOCH" Value="TREATMENT"/>
      <ItemData ItemOID="IT.OE.OEDTC" Value="2013-09-24"/>
      <ItemData ItemOID="IT.OE.OEDY" Value="27"/>
    </ItemGroupData>
    <ItemGroupData ItemGroupOID="IG.OE" data:ItemGroupDataSeq="44">
      <ItemData ItemOID="IT.OE.STUDYID" Value="CDISCPILOT01"/>
      <ItemData ItemOID="IT.OE.DOMAIN" Value="OE"/>
      <ItemData ItemOID="IT.OE.USUBJID" Value="CDISC003"/>
      <ItemData ItemOID="IT.OE.FOCID" Value="OD"/>
      <ItemData ItemOID="IT.OE.OESEQ" Value="11"/>
      <ItemData ItemOID="IT.OE.OETESTCD" Value="INTP"/>
      <ItemData ItemOID="IT.OE.OETEST" Value="Interpretation"/>
      <ItemData ItemOID="IT.OE.OEORRES" Value="NORMAL"/>
      <ItemData ItemOID="IT.OE.OESTRESC" Value="NORMAL"/>
      <ItemData ItemOID="IT.OE.OELOC" Value="EYE"/>
      <ItemData ItemOID="IT.OE.OELAT" Value="RIGHT"/>
      <ItemData ItemOID="IT.OE.OEMETHOD" Value="SLIT LAMP"/>
      <ItemData ItemOID="IT.OE.VISITNUM" Value="8"/>
      <ItemData ItemOID="IT.OE.VISIT" Value="WEEK 8"/>
      <ItemData ItemOID="IT.OE.EPOCH" Value="TREATMENT"/>
      <ItemData ItemOID="IT.OE.OEDTC" Value="2013-10-22"/>
      <ItemData ItemOID="IT.OE.OEDY" Value="55"/>
    </ItemGroupData>
    <ItemGroupData ItemGroupOID="IG.OE" data:ItemGroupDataSeq="45">
      <ItemData ItemOID="IT.OE.STUDYID" Value="CDISCPILOT01"/>
      <ItemData ItemOID="IT.OE.DOMAIN" Value="OE"/>
      <ItemData ItemOID="IT.OE.USUBJID" Value="CDISC003"/>
      <ItemData ItemOID="IT.OE.FOCID" Value="OS"/>
      <ItemData ItemOID="IT.OE.OESEQ" Value="12"/>
      <ItemData ItemOID="IT.OE.OETESTCD" Value="INTP"/>
      <ItemData ItemOID="IT.OE.OETEST" Value="Interpretation"/>
      <ItemData ItemOID="IT.OE.OEORRES" Value="NORMAL"/>
      <ItemData ItemOID="IT.OE.OESTRESC" Value="NORMAL"/>
      <ItemData ItemOID="IT.OE.OELOC" Value="EYE"/>
      <ItemData ItemOID="IT.OE.OELAT" Value="LEFT"/>
      <ItemData ItemOID="IT.OE.OEMETHOD" Value="SLIT LAMP"/>
      <ItemData ItemOID="IT.OE.VISITNUM" Value="8"/>
      <ItemData ItemOID="IT.OE.VISIT" Value="WEEK 8"/>
      <ItemData ItemOID="IT.OE.EPOCH" Value="TREATMENT"/>
      <ItemData ItemOID="IT.OE.OEDTC" Value="2013-10-22"/>
      <ItemData ItemOID="IT.OE.OEDY" Value="55"/>
    </ItemGroupData>
    <ItemGroupData ItemGroupOID="IG.OE" data:ItemGroupDataSeq="46">
      <ItemData ItemOID="IT.OE.STUDYID" Value="CDISCPILOT01"/>
      <ItemData ItemOID="IT.OE.DOMAIN" Value="OE"/>
      <ItemData ItemOID="IT.OE.USUBJID" Value="CDISC003"/>
      <ItemData ItemOID="IT.OE.FOCID" Value="OD"/>
      <ItemData ItemOID="IT.OE.OESEQ" Value="13"/>
      <ItemData ItemOID="IT.OE.OETESTCD" Value="INTP"/>
      <ItemData ItemOID="IT.OE.OETEST" Value="Interpretation"/>
      <ItemData ItemOID="IT.OE.OEORRES" Value="NORMAL"/>
      <ItemData ItemOID="IT.OE.OESTRESC" Value="NORMAL"/>
      <ItemData ItemOID="IT.OE.OELOC" Value="EYE"/>
      <ItemData ItemOID="IT.OE.OELAT" Value="RIGHT"/>
      <ItemData ItemOID="IT.OE.OEMETHOD" Value="SLIT LAMP"/>
      <ItemData ItemOID="IT.OE.VISITNUM" Value="9"/>
      <ItemData ItemOID="IT.OE.VISIT" Value="WEEK 12"/>
      <ItemData ItemOID="IT.OE.EPOCH" Value="TREATMENT"/>
      <ItemData ItemOID="IT.OE.OEDTC" Value="2013-11-05"/>
      <ItemData ItemOID="IT.OE.OEDY" Value="69"/>
    </ItemGroupData>
    <ItemGroupData ItemGroupOID="IG.OE" data:ItemGroupDataSeq="47">
      <ItemData ItemOID="IT.OE.STUDYID" Value="CDISCPILOT01"/>
      <ItemData ItemOID="IT.OE.DOMAIN" Value="OE"/>
      <ItemData ItemOID="IT.OE.USUBJID" Value="CDISC003"/>
      <ItemData ItemOID="IT.OE.FOCID" Value="OS"/>
      <ItemData ItemOID="IT.OE.OESEQ" Value="14"/>
      <ItemData ItemOID="IT.OE.OETESTCD" Value="INTP"/>
      <ItemData ItemOID="IT.OE.OETEST" Value="Interpretation"/>
      <ItemData ItemOID="IT.OE.OEORRES" Value="NORMAL"/>
      <ItemData ItemOID="IT.OE.OESTRESC" Value="NORMAL"/>
      <ItemData ItemOID="IT.OE.OELOC" Value="EYE"/>
      <ItemData ItemOID="IT.OE.OELAT" Value="LEFT"/>
      <ItemData ItemOID="IT.OE.OEMETHOD" Value="SLIT LAMP"/>
      <ItemData ItemOID="IT.OE.VISITNUM" Value="9"/>
      <ItemData ItemOID="IT.OE.VISIT" Value="WEEK 12"/>
      <ItemData ItemOID="IT.OE.EPOCH" Value="TREATMENT"/>
      <ItemData ItemOID="IT.OE.OEDTC" Value="2013-11-05"/>
      <ItemData ItemOID="IT.OE.OEDY" Value="69"/>
    </ItemGroupData>
    <ItemGroupData ItemGroupOID="IG.OE" data:ItemGroupDataSeq="48">
      <ItemData ItemOID="IT.OE.STUDYID" Value="CDISCPILOT01"/>
      <ItemData ItemOID="IT.OE.DOMAIN" Value="OE"/>
      <ItemData ItemOID="IT.OE.USUBJID" Value="CDISC003"/>
      <ItemData ItemOID="IT.OE.FOCID" Value="OD"/>
      <ItemData ItemOID="IT.OE.OESEQ" Value="15"/>
      <ItemData ItemOID="IT.OE.OETESTCD" Value="INTP"/>
      <ItemData ItemOID="IT.OE.OETEST" Value="Interpretation"/>
      <ItemData ItemOID="IT.OE.OEORRES" Value="NORMAL"/>
      <ItemData ItemOID="IT.OE.OESTRESC" Value="NORMAL"/>
      <ItemData ItemOID="IT.OE.OELOC" Value="EYE"/>
      <ItemData ItemOID="IT.OE.OELAT" Value="RIGHT"/>
      <ItemData ItemOID="IT.OE.OEMETHOD" Value="SLIT LAMP"/>
      <ItemData ItemOID="IT.OE.VISITNUM" Value="201"/>
      <ItemData ItemOID="IT.OE.VISIT" Value="EARLY DISCONTINUATION RETRIEVAL"/>
      <ItemData ItemOID="IT.OE.EPOCH" Value="TREATMENT"/>
      <ItemData ItemOID="IT.OE.OEDTC" Value="2014-02-13"/>
      <ItemData ItemOID="IT.OE.OEDY" Value="169"/>
    </ItemGroupData>
    <ItemGroupData ItemGroupOID="IG.OE" data:ItemGroupDataSeq="49">
      <ItemData ItemOID="IT.OE.STUDYID" Value="CDISCPILOT01"/>
      <ItemData ItemOID="IT.OE.DOMAIN" Value="OE"/>
      <ItemData ItemOID="IT.OE.USUBJID" Value="CDISC003"/>
      <ItemData ItemOID="IT.OE.FOCID" Value="OS"/>
      <ItemData ItemOID="IT.OE.OESEQ" Value="16"/>
      <ItemData ItemOID="IT.OE.OETESTCD" Value="INTP"/>
      <ItemData ItemOID="IT.OE.OETEST" Value="Interpretation"/>
      <ItemData ItemOID="IT.OE.OEORRES" Value="NORMAL"/>
      <ItemData ItemOID="IT.OE.OESTRESC" Value="NORMAL"/>
      <ItemData ItemOID="IT.OE.OELOC" Value="EYE"/>
      <ItemData ItemOID="IT.OE.OELAT" Value="LEFT"/>
      <ItemData ItemOID="IT.OE.OEMETHOD" Value="SLIT LAMP"/>
      <ItemData ItemOID="IT.OE.VISITNUM" Value="201"/>
      <ItemData ItemOID="IT.OE.VISIT" Value="EARLY DISCONTINUATION RETRIEVAL"/>
      <ItemData ItemOID="IT.OE.EPOCH" Value="TREATMENT"/>
      <ItemData ItemOID="IT.OE.OEDTC" Value="2014-02-13"/>
      <ItemData ItemOID="IT.OE.OEDY" Value="169"/>
    </ItemGroupData>
    <ItemGroupData ItemGroupOID="IG.OE" data:ItemGroupDataSeq="50">
      <ItemData ItemOID="IT.OE.STUDYID" Value="CDISCPILOT01"/>
      <ItemData ItemOID="IT.OE.DOMAIN" Value="OE"/>
      <ItemData ItemOID="IT.OE.USUBJID" Value="CDISC004"/>
      <ItemData ItemOID="IT.OE.FOCID" Value="OD"/>
      <ItemData ItemOID="IT.OE.OESEQ" Value="1"/>
      <ItemData ItemOID="IT.OE.OETESTCD" Value="INTP"/>
      <ItemData ItemOID="IT.OE.OETEST" Value="Interpretation"/>
      <ItemData ItemOID="IT.OE.OEORRES" Value="NORMAL"/>
      <ItemData ItemOID="IT.OE.OESTRESC" Value="NORMAL"/>
      <ItemData ItemOID="IT.OE.OELOC" Value="EYE"/>
      <ItemData ItemOID="IT.OE.OELAT" Value="RIGHT"/>
      <ItemData ItemOID="IT.OE.OEMETHOD" Value="SLIT LAMP"/>
      <ItemData ItemOID="IT.OE.VISITNUM" Value="1"/>
      <ItemData ItemOID="IT.OE.VISIT" Value="SCREENING 1"/>
      <ItemData ItemOID="IT.OE.EPOCH" Value="SCREENING"/>
      <ItemData ItemOID="IT.OE.OEDTC" Value="2013-10-01"/>
      <ItemData ItemOID="IT.OE.OEDY" Value="-7"/>
    </ItemGroupData>
    <ItemGroupData ItemGroupOID="IG.OE" data:ItemGroupDataSeq="51">
      <ItemData ItemOID="IT.OE.STUDYID" Value="CDISCPILOT01"/>
      <ItemData ItemOID="IT.OE.DOMAIN" Value="OE"/>
      <ItemData ItemOID="IT.OE.USUBJID" Value="CDISC004"/>
      <ItemData ItemOID="IT.OE.FOCID" Value="OS"/>
      <ItemData ItemOID="IT.OE.OESEQ" Value="2"/>
      <ItemData ItemOID="IT.OE.OETESTCD" Value="INTP"/>
      <ItemData ItemOID="IT.OE.OETEST" Value="Interpretation"/>
      <ItemData ItemOID="IT.OE.OEORRES" Value="ABNORMAL"/>
      <ItemData ItemOID="IT.OE.OESTRESC" Value="ABNORMAL"/>
      <ItemData ItemOID="IT.OE.OELOC" Value="EYE"/>
      <ItemData ItemOID="IT.OE.OELAT" Value="LEFT"/>
      <ItemData ItemOID="IT.OE.OEMETHOD" Value="SLIT LAMP"/>
      <ItemData ItemOID="IT.OE.VISITNUM" Value="1"/>
      <ItemData ItemOID="IT.OE.VISIT" Value="SCREENING 1"/>
      <ItemData ItemOID="IT.OE.EPOCH" Value="SCREENING"/>
      <ItemData ItemOID="IT.OE.OEDTC" Value="2013-10-01"/>
      <ItemData ItemOID="IT.OE.OEDY" Value="-7"/>
    </ItemGroupData>
    <ItemGroupData ItemGroupOID="IG.OE" data:ItemGroupDataSeq="52">
      <ItemData ItemOID="IT.OE.STUDYID" Value="CDISCPILOT01"/>
      <ItemData ItemOID="IT.OE.DOMAIN" Value="OE"/>
      <ItemData ItemOID="IT.OE.USUBJID" Value="CDISC004"/>
      <ItemData ItemOID="IT.OE.FOCID" Value="OS"/>
      <ItemData ItemOID="IT.OE.OESEQ" Value="3"/>
      <ItemData ItemOID="IT.OE.OETESTCD" Value="ABDETAIL"/>
      <ItemData ItemOID="IT.OE.OETEST" Value="Abnormality Detail"/>
      <ItemData ItemOID="IT.OE.OEORRES" Value="PTOSIS"/>
      <ItemData ItemOID="IT.OE.OESTRESC" Value="PTOSIS"/>
      <ItemData ItemOID="IT.OE.OELOC" Value="IRIS"/>
      <ItemData ItemOID="IT.OE.OELAT" Value="LEFT"/>
      <ItemData ItemOID="IT.OE.OEMETHOD" Value="SLIT LAMP"/>
      <ItemData ItemOID="IT.OE.VISITNUM" Value="1"/>
      <ItemData ItemOID="IT.OE.VISIT" Value="SCREENING 1"/>
      <ItemData ItemOID="IT.OE.EPOCH" Value="SCREENING"/>
      <ItemData ItemOID="IT.OE.OEDTC" Value="2013-10-01"/>
      <ItemData ItemOID="IT.OE.OEDY" Value="-7"/>
    </ItemGroupData>
    <ItemGroupData ItemGroupOID="IG.OE" data:ItemGroupDataSeq="53">
      <ItemData ItemOID="IT.OE.STUDYID" Value="CDISCPILOT01"/>
      <ItemData ItemOID="IT.OE.DOMAIN" Value="OE"/>
      <ItemData ItemOID="IT.OE.USUBJID" Value="CDISC004"/>
      <ItemData ItemOID="IT.OE.FOCID" Value="OD"/>
      <ItemData ItemOID="IT.OE.OESEQ" Value="4"/>
      <ItemData ItemOID="IT.OE.OETESTCD" Value="INTP"/>
      <ItemData ItemOID="IT.OE.OETEST" Value="Interpretation"/>
      <ItemData ItemOID="IT.OE.OEORRES" Value="NORMAL"/>
      <ItemData ItemOID="IT.OE.OESTRESC" Value="NORMAL"/>
      <ItemData ItemOID="IT.OE.OELOC" Value="EYE"/>
      <ItemData ItemOID="IT.OE.OELAT" Value="RIGHT"/>
      <ItemData ItemOID="IT.OE.OEMETHOD" Value="SLIT LAMP"/>
      <ItemData ItemOID="IT.OE.VISITNUM" Value="2"/>
      <ItemData ItemOID="IT.OE.VISIT" Value="SCREENING 2"/>
      <ItemData ItemOID="IT.OE.EPOCH" Value="SCREENING"/>
      <ItemData ItemOID="IT.OE.OEDTC" Value="2013-10-06"/>
      <ItemData ItemOID="IT.OE.OEDY" Value="-2"/>
    </ItemGroupData>
    <ItemGroupData ItemGroupOID="IG.OE" data:ItemGroupDataSeq="54">
      <ItemData ItemOID="IT.OE.STUDYID" Value="CDISCPILOT01"/>
      <ItemData ItemOID="IT.OE.DOMAIN" Value="OE"/>
      <ItemData ItemOID="IT.OE.USUBJID" Value="CDISC004"/>
      <ItemData ItemOID="IT.OE.FOCID" Value="OS"/>
      <ItemData ItemOID="IT.OE.OESEQ" Value="5"/>
      <ItemData ItemOID="IT.OE.OETESTCD" Value="INTP"/>
      <ItemData ItemOID="IT.OE.OETEST" Value="Interpretation"/>
      <ItemData ItemOID="IT.OE.OEORRES" Value="ABNORMAL"/>
      <ItemData ItemOID="IT.OE.OESTRESC" Value="ABNORMAL"/>
      <ItemData ItemOID="IT.OE.OELOC" Value="EYE"/>
      <ItemData ItemOID="IT.OE.OELAT" Value="LEFT"/>
      <ItemData ItemOID="IT.OE.OEMETHOD" Value="SLIT LAMP"/>
      <ItemData ItemOID="IT.OE.VISITNUM" Value="2"/>
      <ItemData ItemOID="IT.OE.VISIT" Value="SCREENING 2"/>
      <ItemData ItemOID="IT.OE.EPOCH" Value="SCREENING"/>
      <ItemData ItemOID="IT.OE.OEDTC" Value="2013-10-06"/>
      <ItemData ItemOID="IT.OE.OEDY" Value="-2"/>
    </ItemGroupData>
    <ItemGroupData ItemGroupOID="IG.OE" data:ItemGroupDataSeq="55">
      <ItemData ItemOID="IT.OE.STUDYID" Value="CDISCPILOT01"/>
      <ItemData ItemOID="IT.OE.DOMAIN" Value="OE"/>
      <ItemData ItemOID="IT.OE.USUBJID" Value="CDISC004"/>
      <ItemData ItemOID="IT.OE.FOCID" Value="OS"/>
      <ItemData ItemOID="IT.OE.OESEQ" Value="6"/>
      <ItemData ItemOID="IT.OE.OETESTCD" Value="ABDETAIL"/>
      <ItemData ItemOID="IT.OE.OETEST" Value="Abnormality Detail"/>
      <ItemData ItemOID="IT.OE.OEORRES" Value="PTOSIS"/>
      <ItemData ItemOID="IT.OE.OESTRESC" Value="PTOSIS"/>
      <ItemData ItemOID="IT.OE.OELOC" Value="IRIS"/>
      <ItemData ItemOID="IT.OE.OELAT" Value="LEFT"/>
      <ItemData ItemOID="IT.OE.OEMETHOD" Value="SLIT LAMP"/>
      <ItemData ItemOID="IT.OE.VISITNUM" Value="2"/>
      <ItemData ItemOID="IT.OE.VISIT" Value="SCREENING 2"/>
      <ItemData ItemOID="IT.OE.EPOCH" Value="SCREENING"/>
      <ItemData ItemOID="IT.OE.OEDTC" Value="2013-10-06"/>
      <ItemData ItemOID="IT.OE.OEDY" Value="-2"/>
    </ItemGroupData>
    <ItemGroupData ItemGroupOID="IG.OE" data:ItemGroupDataSeq="56">
      <ItemData ItemOID="IT.OE.STUDYID" Value="CDISCPILOT01"/>
      <ItemData ItemOID="IT.OE.DOMAIN" Value="OE"/>
      <ItemData ItemOID="IT.OE.USUBJID" Value="CDISC004"/>
      <ItemData ItemOID="IT.OE.FOCID" Value="OD"/>
      <ItemData ItemOID="IT.OE.OESEQ" Value="7"/>
      <ItemData ItemOID="IT.OE.OETESTCD" Value="INTP"/>
      <ItemData ItemOID="IT.OE.OETEST" Value="Interpretation"/>
      <ItemData ItemOID="IT.OE.OEORRES" Value="NORMAL"/>
      <ItemData ItemOID="IT.OE.OESTRESC" Value="NORMAL"/>
      <ItemData ItemOID="IT.OE.OELOC" Value="EYE"/>
      <ItemData ItemOID="IT.OE.OELAT" Value="RIGHT"/>
      <ItemData ItemOID="IT.OE.OEMETHOD" Value="SLIT LAMP"/>
      <ItemData ItemOID="IT.OE.OELOBXFL" Value="Y"/>
      <ItemData ItemOID="IT.OE.VISITNUM" Value="3"/>
      <ItemData ItemOID="IT.OE.VISIT" Value="BASELINE"/>
      <ItemData ItemOID="IT.OE.EPOCH" Value="SCREENING"/>
      <ItemData ItemOID="IT.OE.OEDTC" Value="2013-10-08"/>
      <ItemData ItemOID="IT.OE.OEDY" Value="1"/>
    </ItemGroupData>
    <ItemGroupData ItemGroupOID="IG.OE" data:ItemGroupDataSeq="57">
      <ItemData ItemOID="IT.OE.STUDYID" Value="CDISCPILOT01"/>
      <ItemData ItemOID="IT.OE.DOMAIN" Value="OE"/>
      <ItemData ItemOID="IT.OE.USUBJID" Value="CDISC004"/>
      <ItemData ItemOID="IT.OE.FOCID" Value="OS"/>
      <ItemData ItemOID="IT.OE.OESEQ" Value="8"/>
      <ItemData ItemOID="IT.OE.OETESTCD" Value="INTP"/>
      <ItemData ItemOID="IT.OE.OETEST" Value="Interpretation"/>
      <ItemData ItemOID="IT.OE.OEORRES" Value="ABNORMAL"/>
      <ItemData ItemOID="IT.OE.OESTRESC" Value="ABNORMAL"/>
      <ItemData ItemOID="IT.OE.OELOC" Value="EYE"/>
      <ItemData ItemOID="IT.OE.OELAT" Value="LEFT"/>
      <ItemData ItemOID="IT.OE.OEMETHOD" Value="SLIT LAMP"/>
      <ItemData ItemOID="IT.OE.OELOBXFL" Value="Y"/>
      <ItemData ItemOID="IT.OE.VISITNUM" Value="3"/>
      <ItemData ItemOID="IT.OE.VISIT" Value="BASELINE"/>
      <ItemData ItemOID="IT.OE.EPOCH" Value="SCREENING"/>
      <ItemData ItemOID="IT.OE.OEDTC" Value="2013-10-08"/>
      <ItemData ItemOID="IT.OE.OEDY" Value="1"/>
    </ItemGroupData>
    <ItemGroupData ItemGroupOID="IG.OE" data:ItemGroupDataSeq="58">
      <ItemData ItemOID="IT.OE.STUDYID" Value="CDISCPILOT01"/>
      <ItemData ItemOID="IT.OE.DOMAIN" Value="OE"/>
      <ItemData ItemOID="IT.OE.USUBJID" Value="CDISC004"/>
      <ItemData ItemOID="IT.OE.FOCID" Value="OS"/>
      <ItemData ItemOID="IT.OE.OESEQ" Value="9"/>
      <ItemData ItemOID="IT.OE.OETESTCD" Value="ABDETAIL"/>
      <ItemData ItemOID="IT.OE.OETEST" Value="Abnormality Detail"/>
      <ItemData ItemOID="IT.OE.OEORRES" Value="PTOSIS"/>
      <ItemData ItemOID="IT.OE.OESTRESC" Value="PTOSIS"/>
      <ItemData ItemOID="IT.OE.OELOC" Value="IRIS"/>
      <ItemData ItemOID="IT.OE.OELAT" Value="LEFT"/>
      <ItemData ItemOID="IT.OE.OEMETHOD" Value="SLIT LAMP"/>
      <ItemData ItemOID="IT.OE.VISITNUM" Value="3"/>
      <ItemData ItemOID="IT.OE.VISIT" Value="BASELINE"/>
      <ItemData ItemOID="IT.OE.EPOCH" Value="SCREENING"/>
      <ItemData ItemOID="IT.OE.OEDTC" Value="2013-10-08"/>
      <ItemData ItemOID="IT.OE.OEDY" Value="1"/>
    </ItemGroupData>
    <ItemGroupData ItemGroupOID="IG.OE" data:ItemGroupDataSeq="59">
      <ItemData ItemOID="IT.OE.STUDYID" Value="CDISCPILOT01"/>
      <ItemData ItemOID="IT.OE.DOMAIN" Value="OE"/>
      <ItemData ItemOID="IT.OE.USUBJID" Value="CDISC004"/>
      <ItemData ItemOID="IT.OE.FOCID" Value="OD"/>
      <ItemData ItemOID="IT.OE.OESEQ" Value="10"/>
      <ItemData ItemOID="IT.OE.OETESTCD" Value="INTP"/>
      <ItemData ItemOID="IT.OE.OETEST" Value="Interpretation"/>
      <ItemData ItemOID="IT.OE.OEORRES" Value="NORMAL"/>
      <ItemData ItemOID="IT.OE.OESTRESC" Value="NORMAL"/>
      <ItemData ItemOID="IT.OE.OELOC" Value="EYE"/>
      <ItemData ItemOID="IT.OE.OELAT" Value="RIGHT"/>
      <ItemData ItemOID="IT.OE.OEMETHOD" Value="SLIT LAMP"/>
      <ItemData ItemOID="IT.OE.VISITNUM" Value="4"/>
      <ItemData ItemOID="IT.OE.VISIT" Value="WEEK 2"/>
      <ItemData ItemOID="IT.OE.EPOCH" Value="TREATMENT"/>
      <ItemData ItemOID="IT.OE.OEDTC" Value="2013-10-24"/>
      <ItemData ItemOID="IT.OE.OEDY" Value="17"/>
    </ItemGroupData>
    <ItemGroupData ItemGroupOID="IG.OE" data:ItemGroupDataSeq="60">
      <ItemData ItemOID="IT.OE.STUDYID" Value="CDISCPILOT01"/>
      <ItemData ItemOID="IT.OE.DOMAIN" Value="OE"/>
      <ItemData ItemOID="IT.OE.USUBJID" Value="CDISC004"/>
      <ItemData ItemOID="IT.OE.FOCID" Value="OS"/>
      <ItemData ItemOID="IT.OE.OESEQ" Value="11"/>
      <ItemData ItemOID="IT.OE.OETESTCD" Value="INTP"/>
      <ItemData ItemOID="IT.OE.OETEST" Value="Interpretation"/>
      <ItemData ItemOID="IT.OE.OEORRES" Value="ABNORMAL"/>
      <ItemData ItemOID="IT.OE.OESTRESC" Value="ABNORMAL"/>
      <ItemData ItemOID="IT.OE.OELOC" Value="EYE"/>
      <ItemData ItemOID="IT.OE.OELAT" Value="LEFT"/>
      <ItemData ItemOID="IT.OE.OEMETHOD" Value="SLIT LAMP"/>
      <ItemData ItemOID="IT.OE.VISITNUM" Value="4"/>
      <ItemData ItemOID="IT.OE.VISIT" Value="WEEK 2"/>
      <ItemData ItemOID="IT.OE.EPOCH" Value="TREATMENT"/>
      <ItemData ItemOID="IT.OE.OEDTC" Value="2013-10-24"/>
      <ItemData ItemOID="IT.OE.OEDY" Value="17"/>
    </ItemGroupData>
    <ItemGroupData ItemGroupOID="IG.OE" data:ItemGroupDataSeq="61">
      <ItemData ItemOID="IT.OE.STUDYID" Value="CDISCPILOT01"/>
      <ItemData ItemOID="IT.OE.DOMAIN" Value="OE"/>
      <ItemData ItemOID="IT.OE.USUBJID" Value="CDISC004"/>
      <ItemData ItemOID="IT.OE.FOCID" Value="OS"/>
      <ItemData ItemOID="IT.OE.OESEQ" Value="12"/>
      <ItemData ItemOID="IT.OE.OETESTCD" Value="ABDETAIL"/>
      <ItemData ItemOID="IT.OE.OETEST" Value="Abnormality Detail"/>
      <ItemData ItemOID="IT.OE.OEORRES" Value="PTOSIS"/>
      <ItemData ItemOID="IT.OE.OESTRESC" Value="PTOSIS"/>
      <ItemData ItemOID="IT.OE.OELOC" Value="IRIS"/>
      <ItemData ItemOID="IT.OE.OELAT" Value="LEFT"/>
      <ItemData ItemOID="IT.OE.OEMETHOD" Value="SLIT LAMP"/>
      <ItemData ItemOID="IT.OE.VISITNUM" Value="4"/>
      <ItemData ItemOID="IT.OE.VISIT" Value="WEEK 2"/>
      <ItemData ItemOID="IT.OE.EPOCH" Value="TREATMENT"/>
      <ItemData ItemOID="IT.OE.OEDTC" Value="2013-10-24"/>
      <ItemData ItemOID="IT.OE.OEDY" Value="17"/>
    </ItemGroupData>
    <ItemGroupData ItemGroupOID="IG.OE" data:ItemGroupDataSeq="62">
      <ItemData ItemOID="IT.OE.STUDYID" Value="CDISCPILOT01"/>
      <ItemData ItemOID="IT.OE.DOMAIN" Value="OE"/>
      <ItemData ItemOID="IT.OE.USUBJID" Value="CDISC004"/>
      <ItemData ItemOID="IT.OE.FOCID" Value="OD"/>
      <ItemData ItemOID="IT.OE.OESEQ" Value="13"/>
      <ItemData ItemOID="IT.OE.OETESTCD" Value="INTP"/>
      <ItemData ItemOID="IT.OE.OETEST" Value="Interpretation"/>
      <ItemData ItemOID="IT.OE.OEORRES" Value="NORMAL"/>
      <ItemData ItemOID="IT.OE.OESTRESC" Value="NORMAL"/>
      <ItemData ItemOID="IT.OE.OELOC" Value="EYE"/>
      <ItemData ItemOID="IT.OE.OELAT" Value="RIGHT"/>
      <ItemData ItemOID="IT.OE.OEMETHOD" Value="SLIT LAMP"/>
      <ItemData ItemOID="IT.OE.VISITNUM" Value="5"/>
      <ItemData ItemOID="IT.OE.VISIT" Value="WEEK 4"/>
      <ItemData ItemOID="IT.OE.EPOCH" Value="TREATMENT"/>
      <ItemData ItemOID="IT.OE.OEDTC" Value="2013-11-08"/>
      <ItemData ItemOID="IT.OE.OEDY" Value="32"/>
    </ItemGroupData>
    <ItemGroupData ItemGroupOID="IG.OE" data:ItemGroupDataSeq="63">
      <ItemData ItemOID="IT.OE.STUDYID" Value="CDISCPILOT01"/>
      <ItemData ItemOID="IT.OE.DOMAIN" Value="OE"/>
      <ItemData ItemOID="IT.OE.USUBJID" Value="CDISC004"/>
      <ItemData ItemOID="IT.OE.FOCID" Value="OS"/>
      <ItemData ItemOID="IT.OE.OESEQ" Value="14"/>
      <ItemData ItemOID="IT.OE.OETESTCD" Value="INTP"/>
      <ItemData ItemOID="IT.OE.OETEST" Value="Interpretation"/>
      <ItemData ItemOID="IT.OE.OEORRES" Value="ABNORMAL"/>
      <ItemData ItemOID="IT.OE.OESTRESC" Value="ABNORMAL"/>
      <ItemData ItemOID="IT.OE.OELOC" Value="EYE"/>
      <ItemData ItemOID="IT.OE.OELAT" Value="LEFT"/>
      <ItemData ItemOID="IT.OE.OEMETHOD" Value="SLIT LAMP"/>
      <ItemData ItemOID="IT.OE.VISITNUM" Value="5"/>
      <ItemData ItemOID="IT.OE.VISIT" Value="WEEK 4"/>
      <ItemData ItemOID="IT.OE.EPOCH" Value="TREATMENT"/>
      <ItemData ItemOID="IT.OE.OEDTC" Value="2013-11-08"/>
      <ItemData ItemOID="IT.OE.OEDY" Value="32"/>
    </ItemGroupData>
    <ItemGroupData ItemGroupOID="IG.OE" data:ItemGroupDataSeq="64">
      <ItemData ItemOID="IT.OE.STUDYID" Value="CDISCPILOT01"/>
      <ItemData ItemOID="IT.OE.DOMAIN" Value="OE"/>
      <ItemData ItemOID="IT.OE.USUBJID" Value="CDISC004"/>
      <ItemData ItemOID="IT.OE.FOCID" Value="OS"/>
      <ItemData ItemOID="IT.OE.OESEQ" Value="15"/>
      <ItemData ItemOID="IT.OE.OETESTCD" Value="ABDETAIL"/>
      <ItemData ItemOID="IT.OE.OETEST" Value="Abnormality Detail"/>
      <ItemData ItemOID="IT.OE.OEORRES" Value="PTOSIS"/>
      <ItemData ItemOID="IT.OE.OESTRESC" Value="PTOSIS"/>
      <ItemData ItemOID="IT.OE.OELOC" Value="IRIS"/>
      <ItemData ItemOID="IT.OE.OELAT" Value="LEFT"/>
      <ItemData ItemOID="IT.OE.OEMETHOD" Value="SLIT LAMP"/>
      <ItemData ItemOID="IT.OE.VISITNUM" Value="5"/>
      <ItemData ItemOID="IT.OE.VISIT" Value="WEEK 4"/>
      <ItemData ItemOID="IT.OE.EPOCH" Value="TREATMENT"/>
      <ItemData ItemOID="IT.OE.OEDTC" Value="2013-11-08"/>
      <ItemData ItemOID="IT.OE.OEDY" Value="32"/>
    </ItemGroupData>
    <ItemGroupData ItemGroupOID="IG.OE" data:ItemGroupDataSeq="65">
      <ItemData ItemOID="IT.OE.STUDYID" Value="CDISCPILOT01"/>
      <ItemData ItemOID="IT.OE.DOMAIN" Value="OE"/>
      <ItemData ItemOID="IT.OE.USUBJID" Value="CDISC004"/>
      <ItemData ItemOID="IT.OE.FOCID" Value="OD"/>
      <ItemData ItemOID="IT.OE.OESEQ" Value="16"/>
      <ItemData ItemOID="IT.OE.OETESTCD" Value="INTP"/>
      <ItemData ItemOID="IT.OE.OETEST" Value="Interpretation"/>
      <ItemData ItemOID="IT.OE.OEORRES" Value="NORMAL"/>
      <ItemData ItemOID="IT.OE.OESTRESC" Value="NORMAL"/>
      <ItemData ItemOID="IT.OE.OELOC" Value="EYE"/>
      <ItemData ItemOID="IT.OE.OELAT" Value="RIGHT"/>
      <ItemData ItemOID="IT.OE.OEMETHOD" Value="SLIT LAMP"/>
      <ItemData ItemOID="IT.OE.VISITNUM" Value="8"/>
      <ItemData ItemOID="IT.OE.VISIT" Value="WEEK 8"/>
      <ItemData ItemOID="IT.OE.EPOCH" Value="TREATMENT"/>
      <ItemData ItemOID="IT.OE.OEDTC" Value="2013-12-03"/>
      <ItemData ItemOID="IT.OE.OEDY" Value="57"/>
    </ItemGroupData>
    <ItemGroupData ItemGroupOID="IG.OE" data:ItemGroupDataSeq="66">
      <ItemData ItemOID="IT.OE.STUDYID" Value="CDISCPILOT01"/>
      <ItemData ItemOID="IT.OE.DOMAIN" Value="OE"/>
      <ItemData ItemOID="IT.OE.USUBJID" Value="CDISC004"/>
      <ItemData ItemOID="IT.OE.FOCID" Value="OS"/>
      <ItemData ItemOID="IT.OE.OESEQ" Value="17"/>
      <ItemData ItemOID="IT.OE.OETESTCD" Value="INTP"/>
      <ItemData ItemOID="IT.OE.OETEST" Value="Interpretation"/>
      <ItemData ItemOID="IT.OE.OEORRES" Value="ABNORMAL"/>
      <ItemData ItemOID="IT.OE.OESTRESC" Value="ABNORMAL"/>
      <ItemData ItemOID="IT.OE.OELOC" Value="EYE"/>
      <ItemData ItemOID="IT.OE.OELAT" Value="LEFT"/>
      <ItemData ItemOID="IT.OE.OEMETHOD" Value="SLIT LAMP"/>
      <ItemData ItemOID="IT.OE.VISITNUM" Value="8"/>
      <ItemData ItemOID="IT.OE.VISIT" Value="WEEK 8"/>
      <ItemData ItemOID="IT.OE.EPOCH" Value="TREATMENT"/>
      <ItemData ItemOID="IT.OE.OEDTC" Value="2013-12-03"/>
      <ItemData ItemOID="IT.OE.OEDY" Value="57"/>
    </ItemGroupData>
    <ItemGroupData ItemGroupOID="IG.OE" data:ItemGroupDataSeq="67">
      <ItemData ItemOID="IT.OE.STUDYID" Value="CDISCPILOT01"/>
      <ItemData ItemOID="IT.OE.DOMAIN" Value="OE"/>
      <ItemData ItemOID="IT.OE.USUBJID" Value="CDISC004"/>
      <ItemData ItemOID="IT.OE.FOCID" Value="OS"/>
      <ItemData ItemOID="IT.OE.OESEQ" Value="18"/>
      <ItemData ItemOID="IT.OE.OETESTCD" Value="ABDETAIL"/>
      <ItemData ItemOID="IT.OE.OETEST" Value="Abnormality Detail"/>
      <ItemData ItemOID="IT.OE.OEORRES" Value="PTOSIS"/>
      <ItemData ItemOID="IT.OE.OESTRESC" Value="PTOSIS"/>
      <ItemData ItemOID="IT.OE.OELOC" Value="IRIS"/>
      <ItemData ItemOID="IT.OE.OELAT" Value="LEFT"/>
      <ItemData ItemOID="IT.OE.OEMETHOD" Value="SLIT LAMP"/>
      <ItemData ItemOID="IT.OE.VISITNUM" Value="8"/>
      <ItemData ItemOID="IT.OE.VISIT" Value="WEEK 8"/>
      <ItemData ItemOID="IT.OE.EPOCH" Value="TREATMENT"/>
      <ItemData ItemOID="IT.OE.OEDTC" Value="2013-12-03"/>
      <ItemData ItemOID="IT.OE.OEDY" Value="57"/>
    </ItemGroupData>
    <ItemGroupData ItemGroupOID="IG.OE" data:ItemGroupDataSeq="68">
      <ItemData ItemOID="IT.OE.STUDYID" Value="CDISCPILOT01"/>
      <ItemData ItemOID="IT.OE.DOMAIN" Value="OE"/>
      <ItemData ItemOID="IT.OE.USUBJID" Value="CDISC004"/>
      <ItemData ItemOID="IT.OE.FOCID" Value="OD"/>
      <ItemData ItemOID="IT.OE.OESEQ" Value="19"/>
      <ItemData ItemOID="IT.OE.OETESTCD" Value="INTP"/>
      <ItemData ItemOID="IT.OE.OETEST" Value="Interpretation"/>
      <ItemData ItemOID="IT.OE.OEORRES" Value="NORMAL"/>
      <ItemData ItemOID="IT.OE.OESTRESC" Value="NORMAL"/>
      <ItemData ItemOID="IT.OE.OELOC" Value="EYE"/>
      <ItemData ItemOID="IT.OE.OELAT" Value="RIGHT"/>
      <ItemData ItemOID="IT.OE.OEMETHOD" Value="SLIT LAMP"/>
      <ItemData ItemOID="IT.OE.VISITNUM" Value="9"/>
      <ItemData ItemOID="IT.OE.VISIT" Value="WEEK 12"/>
      <ItemData ItemOID="IT.OE.EPOCH" Value="TREATMENT"/>
      <ItemData ItemOID="IT.OE.OEDTC" Value="2013-12-31"/>
      <ItemData ItemOID="IT.OE.OEDY" Value="85"/>
    </ItemGroupData>
    <ItemGroupData ItemGroupOID="IG.OE" data:ItemGroupDataSeq="69">
      <ItemData ItemOID="IT.OE.STUDYID" Value="CDISCPILOT01"/>
      <ItemData ItemOID="IT.OE.DOMAIN" Value="OE"/>
      <ItemData ItemOID="IT.OE.USUBJID" Value="CDISC004"/>
      <ItemData ItemOID="IT.OE.FOCID" Value="OS"/>
      <ItemData ItemOID="IT.OE.OESEQ" Value="20"/>
      <ItemData ItemOID="IT.OE.OETESTCD" Value="INTP"/>
      <ItemData ItemOID="IT.OE.OETEST" Value="Interpretation"/>
      <ItemData ItemOID="IT.OE.OEORRES" Value="ABNORMAL"/>
      <ItemData ItemOID="IT.OE.OESTRESC" Value="ABNORMAL"/>
      <ItemData ItemOID="IT.OE.OELOC" Value="EYE"/>
      <ItemData ItemOID="IT.OE.OELAT" Value="LEFT"/>
      <ItemData ItemOID="IT.OE.OEMETHOD" Value="SLIT LAMP"/>
      <ItemData ItemOID="IT.OE.VISITNUM" Value="9"/>
      <ItemData ItemOID="IT.OE.VISIT" Value="WEEK 12"/>
      <ItemData ItemOID="IT.OE.EPOCH" Value="TREATMENT"/>
      <ItemData ItemOID="IT.OE.OEDTC" Value="2013-12-31"/>
      <ItemData ItemOID="IT.OE.OEDY" Value="85"/>
    </ItemGroupData>
    <ItemGroupData ItemGroupOID="IG.OE" data:ItemGroupDataSeq="70">
      <ItemData ItemOID="IT.OE.STUDYID" Value="CDISCPILOT01"/>
      <ItemData ItemOID="IT.OE.DOMAIN" Value="OE"/>
      <ItemData ItemOID="IT.OE.USUBJID" Value="CDISC004"/>
      <ItemData ItemOID="IT.OE.FOCID" Value="OS"/>
      <ItemData ItemOID="IT.OE.OESEQ" Value="21"/>
      <ItemData ItemOID="IT.OE.OETESTCD" Value="ABDETAIL"/>
      <ItemData ItemOID="IT.OE.OETEST" Value="Abnormality Detail"/>
      <ItemData ItemOID="IT.OE.OEORRES" Value="PTOSIS"/>
      <ItemData ItemOID="IT.OE.OESTRESC" Value="PTOSIS"/>
      <ItemData ItemOID="IT.OE.OELOC" Value="IRIS"/>
      <ItemData ItemOID="IT.OE.OELAT" Value="LEFT"/>
      <ItemData ItemOID="IT.OE.OEMETHOD" Value="SLIT LAMP"/>
      <ItemData ItemOID="IT.OE.VISITNUM" Value="9"/>
      <ItemData ItemOID="IT.OE.VISIT" Value="WEEK 12"/>
      <ItemData ItemOID="IT.OE.EPOCH" Value="TREATMENT"/>
      <ItemData ItemOID="IT.OE.OEDTC" Value="2013-12-31"/>
      <ItemData ItemOID="IT.OE.OEDY" Value="85"/>
    </ItemGroupData>
    <ItemGroupData ItemGroupOID="IG.OE" data:ItemGroupDataSeq="71">
      <ItemData ItemOID="IT.OE.STUDYID" Value="CDISCPILOT01"/>
      <ItemData ItemOID="IT.OE.DOMAIN" Value="OE"/>
      <ItemData ItemOID="IT.OE.USUBJID" Value="CDISC004"/>
      <ItemData ItemOID="IT.OE.FOCID" Value="OD"/>
      <ItemData ItemOID="IT.OE.OESEQ" Value="22"/>
      <ItemData ItemOID="IT.OE.OETESTCD" Value="INTP"/>
      <ItemData ItemOID="IT.OE.OETEST" Value="Interpretation"/>
      <ItemData ItemOID="IT.OE.OEORRES" Value="NORMAL"/>
      <ItemData ItemOID="IT.OE.OESTRESC" Value="NORMAL"/>
      <ItemData ItemOID="IT.OE.OELOC" Value="EYE"/>
      <ItemData ItemOID="IT.OE.OELAT" Value="RIGHT"/>
      <ItemData ItemOID="IT.OE.OEMETHOD" Value="SLIT LAMP"/>
      <ItemData ItemOID="IT.OE.VISITNUM" Value="10"/>
      <ItemData ItemOID="IT.OE.VISIT" Value="WEEK 16"/>
      <ItemData ItemOID="IT.OE.EPOCH" Value="TREATMENT"/>
      <ItemData ItemOID="IT.OE.OEDTC" Value="2014-01-27"/>
      <ItemData ItemOID="IT.OE.OEDY" Value="112"/>
    </ItemGroupData>
    <ItemGroupData ItemGroupOID="IG.OE" data:ItemGroupDataSeq="72">
      <ItemData ItemOID="IT.OE.STUDYID" Value="CDISCPILOT01"/>
      <ItemData ItemOID="IT.OE.DOMAIN" Value="OE"/>
      <ItemData ItemOID="IT.OE.USUBJID" Value="CDISC004"/>
      <ItemData ItemOID="IT.OE.FOCID" Value="OS"/>
      <ItemData ItemOID="IT.OE.OESEQ" Value="23"/>
      <ItemData ItemOID="IT.OE.OETESTCD" Value="INTP"/>
      <ItemData ItemOID="IT.OE.OETEST" Value="Interpretation"/>
      <ItemData ItemOID="IT.OE.OEORRES" Value="ABNORMAL"/>
      <ItemData ItemOID="IT.OE.OESTRESC" Value="ABNORMAL"/>
      <ItemData ItemOID="IT.OE.OELOC" Value="EYE"/>
      <ItemData ItemOID="IT.OE.OELAT" Value="LEFT"/>
      <ItemData ItemOID="IT.OE.OEMETHOD" Value="SLIT LAMP"/>
      <ItemData ItemOID="IT.OE.VISITNUM" Value="10"/>
      <ItemData ItemOID="IT.OE.VISIT" Value="WEEK 16"/>
      <ItemData ItemOID="IT.OE.EPOCH" Value="TREATMENT"/>
      <ItemData ItemOID="IT.OE.OEDTC" Value="2014-01-27"/>
      <ItemData ItemOID="IT.OE.OEDY" Value="112"/>
    </ItemGroupData>
    <ItemGroupData ItemGroupOID="IG.OE" data:ItemGroupDataSeq="73">
      <ItemData ItemOID="IT.OE.STUDYID" Value="CDISCPILOT01"/>
      <ItemData ItemOID="IT.OE.DOMAIN" Value="OE"/>
      <ItemData ItemOID="IT.OE.USUBJID" Value="CDISC004"/>
      <ItemData ItemOID="IT.OE.FOCID" Value="OS"/>
      <ItemData ItemOID="IT.OE.OESEQ" Value="24"/>
      <ItemData ItemOID="IT.OE.OETESTCD" Value="ABDETAIL"/>
      <ItemData ItemOID="IT.OE.OETEST" Value="Abnormality Detail"/>
      <ItemData ItemOID="IT.OE.OEORRES" Value="PTOSIS"/>
      <ItemData ItemOID="IT.OE.OESTRESC" Value="PTOSIS"/>
      <ItemData ItemOID="IT.OE.OELOC" Value="IRIS"/>
      <ItemData ItemOID="IT.OE.OELAT" Value="LEFT"/>
      <ItemData ItemOID="IT.OE.OEMETHOD" Value="SLIT LAMP"/>
      <ItemData ItemOID="IT.OE.VISITNUM" Value="10"/>
      <ItemData ItemOID="IT.OE.VISIT" Value="WEEK 16"/>
      <ItemData ItemOID="IT.OE.EPOCH" Value="TREATMENT"/>
      <ItemData ItemOID="IT.OE.OEDTC" Value="2014-01-27"/>
      <ItemData ItemOID="IT.OE.OEDY" Value="112"/>
    </ItemGroupData>
    <ItemGroupData ItemGroupOID="IG.OE" data:ItemGroupDataSeq="74">
      <ItemData ItemOID="IT.OE.STUDYID" Value="CDISCPILOT01"/>
      <ItemData ItemOID="IT.OE.DOMAIN" Value="OE"/>
      <ItemData ItemOID="IT.OE.USUBJID" Value="CDISC004"/>
      <ItemData ItemOID="IT.OE.FOCID" Value="OD"/>
      <ItemData ItemOID="IT.OE.OESEQ" Value="25"/>
      <ItemData ItemOID="IT.OE.OETESTCD" Value="INTP"/>
      <ItemData ItemOID="IT.OE.OETEST" Value="Interpretation"/>
      <ItemData ItemOID="IT.OE.OEORRES" Value="NORMAL"/>
      <ItemData ItemOID="IT.OE.OESTRESC" Value="NORMAL"/>
      <ItemData ItemOID="IT.OE.OELOC" Value="EYE"/>
      <ItemData ItemOID="IT.OE.OELAT" Value="RIGHT"/>
      <ItemData ItemOID="IT.OE.OEMETHOD" Value="SLIT LAMP"/>
      <ItemData ItemOID="IT.OE.VISITNUM" Value="11"/>
      <ItemData ItemOID="IT.OE.VISIT" Value="WEEK 20"/>
      <ItemData ItemOID="IT.OE.EPOCH" Value="TREATMENT"/>
      <ItemData ItemOID="IT.OE.OEDTC" Value="2014-02-25"/>
      <ItemData ItemOID="IT.OE.OEDY" Value="141"/>
    </ItemGroupData>
    <ItemGroupData ItemGroupOID="IG.OE" data:ItemGroupDataSeq="75">
      <ItemData ItemOID="IT.OE.STUDYID" Value="CDISCPILOT01"/>
      <ItemData ItemOID="IT.OE.DOMAIN" Value="OE"/>
      <ItemData ItemOID="IT.OE.USUBJID" Value="CDISC004"/>
      <ItemData ItemOID="IT.OE.FOCID" Value="OS"/>
      <ItemData ItemOID="IT.OE.OESEQ" Value="26"/>
      <ItemData ItemOID="IT.OE.OETESTCD" Value="INTP"/>
      <ItemData ItemOID="IT.OE.OETEST" Value="Interpretation"/>
      <ItemData ItemOID="IT.OE.OEORRES" Value="ABNORMAL"/>
      <ItemData ItemOID="IT.OE.OESTRESC" Value="ABNORMAL"/>
      <ItemData ItemOID="IT.OE.OELOC" Value="EYE"/>
      <ItemData ItemOID="IT.OE.OELAT" Value="LEFT"/>
      <ItemData ItemOID="IT.OE.OEMETHOD" Value="SLIT LAMP"/>
      <ItemData ItemOID="IT.OE.VISITNUM" Value="11"/>
      <ItemData ItemOID="IT.OE.VISIT" Value="WEEK 20"/>
      <ItemData ItemOID="IT.OE.EPOCH" Value="TREATMENT"/>
      <ItemData ItemOID="IT.OE.OEDTC" Value="2014-02-25"/>
      <ItemData ItemOID="IT.OE.OEDY" Value="141"/>
    </ItemGroupData>
    <ItemGroupData ItemGroupOID="IG.OE" data:ItemGroupDataSeq="76">
      <ItemData ItemOID="IT.OE.STUDYID" Value="CDISCPILOT01"/>
      <ItemData ItemOID="IT.OE.DOMAIN" Value="OE"/>
      <ItemData ItemOID="IT.OE.USUBJID" Value="CDISC004"/>
      <ItemData ItemOID="IT.OE.FOCID" Value="OS"/>
      <ItemData ItemOID="IT.OE.OESEQ" Value="27"/>
      <ItemData ItemOID="IT.OE.OETESTCD" Value="ABDETAIL"/>
      <ItemData ItemOID="IT.OE.OETEST" Value="Abnormality Detail"/>
      <ItemData ItemOID="IT.OE.OEORRES" Value="PTOSIS"/>
      <ItemData ItemOID="IT.OE.OESTRESC" Value="PTOSIS"/>
      <ItemData ItemOID="IT.OE.OELOC" Value="IRIS"/>
      <ItemData ItemOID="IT.OE.OELAT" Value="LEFT"/>
      <ItemData ItemOID="IT.OE.OEMETHOD" Value="SLIT LAMP"/>
      <ItemData ItemOID="IT.OE.VISITNUM" Value="11"/>
      <ItemData ItemOID="IT.OE.VISIT" Value="WEEK 20"/>
      <ItemData ItemOID="IT.OE.EPOCH" Value="TREATMENT"/>
      <ItemData ItemOID="IT.OE.OEDTC" Value="2014-02-25"/>
      <ItemData ItemOID="IT.OE.OEDY" Value="141"/>
    </ItemGroupData>
    <ItemGroupData ItemGroupOID="IG.OE" data:ItemGroupDataSeq="77">
      <ItemData ItemOID="IT.OE.STUDYID" Value="CDISCPILOT01"/>
      <ItemData ItemOID="IT.OE.DOMAIN" Value="OE"/>
      <ItemData ItemOID="IT.OE.USUBJID" Value="CDISC004"/>
      <ItemData ItemOID="IT.OE.FOCID" Value="OD"/>
      <ItemData ItemOID="IT.OE.OESEQ" Value="28"/>
      <ItemData ItemOID="IT.OE.OETESTCD" Value="INTP"/>
      <ItemData ItemOID="IT.OE.OETEST" Value="Interpretation"/>
      <ItemData ItemOID="IT.OE.OEORRES" Value="NORMAL"/>
      <ItemData ItemOID="IT.OE.OESTRESC" Value="NORMAL"/>
      <ItemData ItemOID="IT.OE.OELOC" Value="EYE"/>
      <ItemData ItemOID="IT.OE.OELAT" Value="RIGHT"/>
      <ItemData ItemOID="IT.OE.OEMETHOD" Value="SLIT LAMP"/>
      <ItemData ItemOID="IT.OE.VISITNUM" Value="12"/>
      <ItemData ItemOID="IT.OE.VISIT" Value="WEEK 24"/>
      <ItemData ItemOID="IT.OE.EPOCH" Value="TREATMENT"/>
      <ItemData ItemOID="IT.OE.OEDTC" Value="2014-03-18"/>
      <ItemData ItemOID="IT.OE.OEDY" Value="162"/>
    </ItemGroupData>
    <ItemGroupData ItemGroupOID="IG.OE" data:ItemGroupDataSeq="78">
      <ItemData ItemOID="IT.OE.STUDYID" Value="CDISCPILOT01"/>
      <ItemData ItemOID="IT.OE.DOMAIN" Value="OE"/>
      <ItemData ItemOID="IT.OE.USUBJID" Value="CDISC004"/>
      <ItemData ItemOID="IT.OE.FOCID" Value="OS"/>
      <ItemData ItemOID="IT.OE.OESEQ" Value="29"/>
      <ItemData ItemOID="IT.OE.OETESTCD" Value="INTP"/>
      <ItemData ItemOID="IT.OE.OETEST" Value="Interpretation"/>
      <ItemData ItemOID="IT.OE.OEORRES" Value="ABNORMAL"/>
      <ItemData ItemOID="IT.OE.OESTRESC" Value="ABNORMAL"/>
      <ItemData ItemOID="IT.OE.OELOC" Value="EYE"/>
      <ItemData ItemOID="IT.OE.OELAT" Value="LEFT"/>
      <ItemData ItemOID="IT.OE.OEMETHOD" Value="SLIT LAMP"/>
      <ItemData ItemOID="IT.OE.VISITNUM" Value="12"/>
      <ItemData ItemOID="IT.OE.VISIT" Value="WEEK 24"/>
      <ItemData ItemOID="IT.OE.EPOCH" Value="TREATMENT"/>
      <ItemData ItemOID="IT.OE.OEDTC" Value="2014-03-18"/>
      <ItemData ItemOID="IT.OE.OEDY" Value="162"/>
    </ItemGroupData>
    <ItemGroupData ItemGroupOID="IG.OE" data:ItemGroupDataSeq="79">
      <ItemData ItemOID="IT.OE.STUDYID" Value="CDISCPILOT01"/>
      <ItemData ItemOID="IT.OE.DOMAIN" Value="OE"/>
      <ItemData ItemOID="IT.OE.USUBJID" Value="CDISC004"/>
      <ItemData ItemOID="IT.OE.FOCID" Value="OS"/>
      <ItemData ItemOID="IT.OE.OESEQ" Value="30"/>
      <ItemData ItemOID="IT.OE.OETESTCD" Value="ABDETAIL"/>
      <ItemData ItemOID="IT.OE.OETEST" Value="Abnormality Detail"/>
      <ItemData ItemOID="IT.OE.OEORRES" Value="PTOSIS"/>
      <ItemData ItemOID="IT.OE.OESTRESC" Value="PTOSIS"/>
      <ItemData ItemOID="IT.OE.OELOC" Value="IRIS"/>
      <ItemData ItemOID="IT.OE.OELAT" Value="LEFT"/>
      <ItemData ItemOID="IT.OE.OEMETHOD" Value="SLIT LAMP"/>
      <ItemData ItemOID="IT.OE.VISITNUM" Value="12"/>
      <ItemData ItemOID="IT.OE.VISIT" Value="WEEK 24"/>
      <ItemData ItemOID="IT.OE.EPOCH" Value="TREATMENT"/>
      <ItemData ItemOID="IT.OE.OEDTC" Value="2014-03-18"/>
      <ItemData ItemOID="IT.OE.OEDY" Value="162"/>
    </ItemGroupData>
    <ItemGroupData ItemGroupOID="IG.OE" data:ItemGroupDataSeq="80">
      <ItemData ItemOID="IT.OE.STUDYID" Value="CDISCPILOT01"/>
      <ItemData ItemOID="IT.OE.DOMAIN" Value="OE"/>
      <ItemData ItemOID="IT.OE.USUBJID" Value="CDISC005"/>
      <ItemData ItemOID="IT.OE.FOCID" Value="OD"/>
      <ItemData ItemOID="IT.OE.OESEQ" Value="1"/>
      <ItemData ItemOID="IT.OE.OETESTCD" Value="INTP"/>
      <ItemData ItemOID="IT.OE.OETEST" Value="Interpretation"/>
      <ItemData ItemOID="IT.OE.OEORRES" Value="NORMAL"/>
      <ItemData ItemOID="IT.OE.OESTRESC" Value="NORMAL"/>
      <ItemData ItemOID="IT.OE.OELOC" Value="EYE"/>
      <ItemData ItemOID="IT.OE.OELAT" Value="RIGHT"/>
      <ItemData ItemOID="IT.OE.OEMETHOD" Value="SLIT LAMP"/>
      <ItemData ItemOID="IT.OE.VISITNUM" Value="1"/>
      <ItemData ItemOID="IT.OE.VISIT" Value="SCREENING 1"/>
      <ItemData ItemOID="IT.OE.EPOCH" Value="SCREENING"/>
      <ItemData ItemOID="IT.OE.OEDTC" Value="2013-01-22"/>
      <ItemData ItemOID="IT.OE.OEDY" Value="-13"/>
    </ItemGroupData>
    <ItemGroupData ItemGroupOID="IG.OE" data:ItemGroupDataSeq="81">
      <ItemData ItemOID="IT.OE.STUDYID" Value="CDISCPILOT01"/>
      <ItemData ItemOID="IT.OE.DOMAIN" Value="OE"/>
      <ItemData ItemOID="IT.OE.USUBJID" Value="CDISC005"/>
      <ItemData ItemOID="IT.OE.FOCID" Value="OS"/>
      <ItemData ItemOID="IT.OE.OESEQ" Value="2"/>
      <ItemData ItemOID="IT.OE.OETESTCD" Value="INTP"/>
      <ItemData ItemOID="IT.OE.OETEST" Value="Interpretation"/>
      <ItemData ItemOID="IT.OE.OEORRES" Value="NORMAL"/>
      <ItemData ItemOID="IT.OE.OESTRESC" Value="NORMAL"/>
      <ItemData ItemOID="IT.OE.OELOC" Value="EYE"/>
      <ItemData ItemOID="IT.OE.OELAT" Value="LEFT"/>
      <ItemData ItemOID="IT.OE.OEMETHOD" Value="SLIT LAMP"/>
      <ItemData ItemOID="IT.OE.VISITNUM" Value="1"/>
      <ItemData ItemOID="IT.OE.VISIT" Value="SCREENING 1"/>
      <ItemData ItemOID="IT.OE.EPOCH" Value="SCREENING"/>
      <ItemData ItemOID="IT.OE.OEDTC" Value="2013-01-22"/>
      <ItemData ItemOID="IT.OE.OEDY" Value="-13"/>
    </ItemGroupData>
    <ItemGroupData ItemGroupOID="IG.OE" data:ItemGroupDataSeq="82">
      <ItemData ItemOID="IT.OE.STUDYID" Value="CDISCPILOT01"/>
      <ItemData ItemOID="IT.OE.DOMAIN" Value="OE"/>
      <ItemData ItemOID="IT.OE.USUBJID" Value="CDISC005"/>
      <ItemData ItemOID="IT.OE.FOCID" Value="OD"/>
      <ItemData ItemOID="IT.OE.OESEQ" Value="3"/>
      <ItemData ItemOID="IT.OE.OETESTCD" Value="INTP"/>
      <ItemData ItemOID="IT.OE.OETEST" Value="Interpretation"/>
      <ItemData ItemOID="IT.OE.OEORRES" Value="NORMAL"/>
      <ItemData ItemOID="IT.OE.OESTRESC" Value="NORMAL"/>
      <ItemData ItemOID="IT.OE.OELOC" Value="EYE"/>
      <ItemData ItemOID="IT.OE.OELAT" Value="RIGHT"/>
      <ItemData ItemOID="IT.OE.OEMETHOD" Value="SLIT LAMP"/>
      <ItemData ItemOID="IT.OE.VISITNUM" Value="2"/>
      <ItemData ItemOID="IT.OE.VISIT" Value="SCREENING 2"/>
      <ItemData ItemOID="IT.OE.EPOCH" Value="SCREENING"/>
      <ItemData ItemOID="IT.OE.OEDTC" Value="2013-02-02"/>
      <ItemData ItemOID="IT.OE.OEDY" Value="-2"/>
    </ItemGroupData>
    <ItemGroupData ItemGroupOID="IG.OE" data:ItemGroupDataSeq="83">
      <ItemData ItemOID="IT.OE.STUDYID" Value="CDISCPILOT01"/>
      <ItemData ItemOID="IT.OE.DOMAIN" Value="OE"/>
      <ItemData ItemOID="IT.OE.USUBJID" Value="CDISC005"/>
      <ItemData ItemOID="IT.OE.FOCID" Value="OS"/>
      <ItemData ItemOID="IT.OE.OESEQ" Value="4"/>
      <ItemData ItemOID="IT.OE.OETESTCD" Value="INTP"/>
      <ItemData ItemOID="IT.OE.OETEST" Value="Interpretation"/>
      <ItemData ItemOID="IT.OE.OEORRES" Value="NORMAL"/>
      <ItemData ItemOID="IT.OE.OESTRESC" Value="NORMAL"/>
      <ItemData ItemOID="IT.OE.OELOC" Value="EYE"/>
      <ItemData ItemOID="IT.OE.OELAT" Value="LEFT"/>
      <ItemData ItemOID="IT.OE.OEMETHOD" Value="SLIT LAMP"/>
      <ItemData ItemOID="IT.OE.VISITNUM" Value="2"/>
      <ItemData ItemOID="IT.OE.VISIT" Value="SCREENING 2"/>
      <ItemData ItemOID="IT.OE.EPOCH" Value="SCREENING"/>
      <ItemData ItemOID="IT.OE.OEDTC" Value="2013-02-02"/>
      <ItemData ItemOID="IT.OE.OEDY" Value="-2"/>
    </ItemGroupData>
    <ItemGroupData ItemGroupOID="IG.OE" data:ItemGroupDataSeq="84">
      <ItemData ItemOID="IT.OE.STUDYID" Value="CDISCPILOT01"/>
      <ItemData ItemOID="IT.OE.DOMAIN" Value="OE"/>
      <ItemData ItemOID="IT.OE.USUBJID" Value="CDISC005"/>
      <ItemData ItemOID="IT.OE.FOCID" Value="OD"/>
      <ItemData ItemOID="IT.OE.OESEQ" Value="5"/>
      <ItemData ItemOID="IT.OE.OETESTCD" Value="INTP"/>
      <ItemData ItemOID="IT.OE.OETEST" Value="Interpretation"/>
      <ItemData ItemOID="IT.OE.OEORRES" Value="NORMAL"/>
      <ItemData ItemOID="IT.OE.OESTRESC" Value="NORMAL"/>
      <ItemData ItemOID="IT.OE.OELOC" Value="EYE"/>
      <ItemData ItemOID="IT.OE.OELAT" Value="RIGHT"/>
      <ItemData ItemOID="IT.OE.OEMETHOD" Value="SLIT LAMP"/>
      <ItemData ItemOID="IT.OE.OELOBXFL" Value="Y"/>
      <ItemData ItemOID="IT.OE.VISITNUM" Value="3"/>
      <ItemData ItemOID="IT.OE.VISIT" Value="BASELINE"/>
      <ItemData ItemOID="IT.OE.EPOCH" Value="SCREENING"/>
      <ItemData ItemOID="IT.OE.OEDTC" Value="2013-02-04"/>
      <ItemData ItemOID="IT.OE.OEDY" Value="1"/>
    </ItemGroupData>
    <ItemGroupData ItemGroupOID="IG.OE" data:ItemGroupDataSeq="85">
      <ItemData ItemOID="IT.OE.STUDYID" Value="CDISCPILOT01"/>
      <ItemData ItemOID="IT.OE.DOMAIN" Value="OE"/>
      <ItemData ItemOID="IT.OE.USUBJID" Value="CDISC005"/>
      <ItemData ItemOID="IT.OE.FOCID" Value="OS"/>
      <ItemData ItemOID="IT.OE.OESEQ" Value="6"/>
      <ItemData ItemOID="IT.OE.OETESTCD" Value="INTP"/>
      <ItemData ItemOID="IT.OE.OETEST" Value="Interpretation"/>
      <ItemData ItemOID="IT.OE.OEORRES" Value="NORMAL"/>
      <ItemData ItemOID="IT.OE.OESTRESC" Value="NORMAL"/>
      <ItemData ItemOID="IT.OE.OELOC" Value="EYE"/>
      <ItemData ItemOID="IT.OE.OELAT" Value="LEFT"/>
      <ItemData ItemOID="IT.OE.OEMETHOD" Value="SLIT LAMP"/>
      <ItemData ItemOID="IT.OE.OELOBXFL" Value="Y"/>
      <ItemData ItemOID="IT.OE.VISITNUM" Value="3"/>
      <ItemData ItemOID="IT.OE.VISIT" Value="BASELINE"/>
      <ItemData ItemOID="IT.OE.EPOCH" Value="SCREENING"/>
      <ItemData ItemOID="IT.OE.OEDTC" Value="2013-02-04"/>
      <ItemData ItemOID="IT.OE.OEDY" Value="1"/>
    </ItemGroupData>
    <ItemGroupData ItemGroupOID="IG.OE" data:ItemGroupDataSeq="86">
      <ItemData ItemOID="IT.OE.STUDYID" Value="CDISCPILOT01"/>
      <ItemData ItemOID="IT.OE.DOMAIN" Value="OE"/>
      <ItemData ItemOID="IT.OE.USUBJID" Value="CDISC005"/>
      <ItemData ItemOID="IT.OE.FOCID" Value="OD"/>
      <ItemData ItemOID="IT.OE.OESEQ" Value="7"/>
      <ItemData ItemOID="IT.OE.OETESTCD" Value="INTP"/>
      <ItemData ItemOID="IT.OE.OETEST" Value="Interpretation"/>
      <ItemData ItemOID="IT.OE.OEORRES" Value="NORMAL"/>
      <ItemData ItemOID="IT.OE.OESTRESC" Value="NORMAL"/>
      <ItemData ItemOID="IT.OE.OELOC" Value="EYE"/>
      <ItemData ItemOID="IT.OE.OELAT" Value="RIGHT"/>
      <ItemData ItemOID="IT.OE.OEMETHOD" Value="SLIT LAMP"/>
      <ItemData ItemOID="IT.OE.VISITNUM" Value="4"/>
      <ItemData ItemOID="IT.OE.VISIT" Value="WEEK 2"/>
      <ItemData ItemOID="IT.OE.EPOCH" Value="TREATMENT"/>
      <ItemData ItemOID="IT.OE.OEDTC" Value="2013-02-19"/>
      <ItemData ItemOID="IT.OE.OEDY" Value="16"/>
    </ItemGroupData>
    <ItemGroupData ItemGroupOID="IG.OE" data:ItemGroupDataSeq="87">
      <ItemData ItemOID="IT.OE.STUDYID" Value="CDISCPILOT01"/>
      <ItemData ItemOID="IT.OE.DOMAIN" Value="OE"/>
      <ItemData ItemOID="IT.OE.USUBJID" Value="CDISC005"/>
      <ItemData ItemOID="IT.OE.FOCID" Value="OS"/>
      <ItemData ItemOID="IT.OE.OESEQ" Value="8"/>
      <ItemData ItemOID="IT.OE.OETESTCD" Value="INTP"/>
      <ItemData ItemOID="IT.OE.OETEST" Value="Interpretation"/>
      <ItemData ItemOID="IT.OE.OEORRES" Value="NORMAL"/>
      <ItemData ItemOID="IT.OE.OESTRESC" Value="NORMAL"/>
      <ItemData ItemOID="IT.OE.OELOC" Value="EYE"/>
      <ItemData ItemOID="IT.OE.OELAT" Value="LEFT"/>
      <ItemData ItemOID="IT.OE.OEMETHOD" Value="SLIT LAMP"/>
      <ItemData ItemOID="IT.OE.VISITNUM" Value="4"/>
      <ItemData ItemOID="IT.OE.VISIT" Value="WEEK 2"/>
      <ItemData ItemOID="IT.OE.EPOCH" Value="TREATMENT"/>
      <ItemData ItemOID="IT.OE.OEDTC" Value="2013-02-19"/>
      <ItemData ItemOID="IT.OE.OEDY" Value="16"/>
    </ItemGroupData>
    <ItemGroupData ItemGroupOID="IG.OE" data:ItemGroupDataSeq="88">
      <ItemData ItemOID="IT.OE.STUDYID" Value="CDISCPILOT01"/>
      <ItemData ItemOID="IT.OE.DOMAIN" Value="OE"/>
      <ItemData ItemOID="IT.OE.USUBJID" Value="CDISC005"/>
      <ItemData ItemOID="IT.OE.FOCID" Value="OD"/>
      <ItemData ItemOID="IT.OE.OESEQ" Value="9"/>
      <ItemData ItemOID="IT.OE.OETESTCD" Value="INTP"/>
      <ItemData ItemOID="IT.OE.OETEST" Value="Interpretation"/>
      <ItemData ItemOID="IT.OE.OEORRES" Value="NORMAL"/>
      <ItemData ItemOID="IT.OE.OESTRESC" Value="NORMAL"/>
      <ItemData ItemOID="IT.OE.OELOC" Value="EYE"/>
      <ItemData ItemOID="IT.OE.OELAT" Value="RIGHT"/>
      <ItemData ItemOID="IT.OE.OEMETHOD" Value="SLIT LAMP"/>
      <ItemData ItemOID="IT.OE.VISITNUM" Value="5"/>
      <ItemData ItemOID="IT.OE.VISIT" Value="WEEK 4"/>
      <ItemData ItemOID="IT.OE.EPOCH" Value="TREATMENT"/>
      <ItemData ItemOID="IT.OE.OEDTC" Value="2013-03-12"/>
      <ItemData ItemOID="IT.OE.OEDY" Value="37"/>
    </ItemGroupData>
    <ItemGroupData ItemGroupOID="IG.OE" data:ItemGroupDataSeq="89">
      <ItemData ItemOID="IT.OE.STUDYID" Value="CDISCPILOT01"/>
      <ItemData ItemOID="IT.OE.DOMAIN" Value="OE"/>
      <ItemData ItemOID="IT.OE.USUBJID" Value="CDISC005"/>
      <ItemData ItemOID="IT.OE.FOCID" Value="OS"/>
      <ItemData ItemOID="IT.OE.OESEQ" Value="10"/>
      <ItemData ItemOID="IT.OE.OETESTCD" Value="INTP"/>
      <ItemData ItemOID="IT.OE.OETEST" Value="Interpretation"/>
      <ItemData ItemOID="IT.OE.OEORRES" Value="NORMAL"/>
      <ItemData ItemOID="IT.OE.OESTRESC" Value="NORMAL"/>
      <ItemData ItemOID="IT.OE.OELOC" Value="EYE"/>
      <ItemData ItemOID="IT.OE.OELAT" Value="LEFT"/>
      <ItemData ItemOID="IT.OE.OEMETHOD" Value="SLIT LAMP"/>
      <ItemData ItemOID="IT.OE.VISITNUM" Value="5"/>
      <ItemData ItemOID="IT.OE.VISIT" Value="WEEK 4"/>
      <ItemData ItemOID="IT.OE.EPOCH" Value="TREATMENT"/>
      <ItemData ItemOID="IT.OE.OEDTC" Value="2013-03-12"/>
      <ItemData ItemOID="IT.OE.OEDY" Value="37"/>
    </ItemGroupData>
    <ItemGroupData ItemGroupOID="IG.OE" data:ItemGroupDataSeq="90">
      <ItemData ItemOID="IT.OE.STUDYID" Value="CDISCPILOT01"/>
      <ItemData ItemOID="IT.OE.DOMAIN" Value="OE"/>
      <ItemData ItemOID="IT.OE.USUBJID" Value="CDISC005"/>
      <ItemData ItemOID="IT.OE.FOCID" Value="OD"/>
      <ItemData ItemOID="IT.OE.OESEQ" Value="11"/>
      <ItemData ItemOID="IT.OE.OETESTCD" Value="INTP"/>
      <ItemData ItemOID="IT.OE.OETEST" Value="Interpretation"/>
      <ItemData ItemOID="IT.OE.OEORRES" Value="NORMAL"/>
      <ItemData ItemOID="IT.OE.OESTRESC" Value="NORMAL"/>
      <ItemData ItemOID="IT.OE.OELOC" Value="EYE"/>
      <ItemData ItemOID="IT.OE.OELAT" Value="RIGHT"/>
      <ItemData ItemOID="IT.OE.OEMETHOD" Value="SLIT LAMP"/>
      <ItemData ItemOID="IT.OE.VISITNUM" Value="8"/>
      <ItemData ItemOID="IT.OE.VISIT" Value="WEEK 8"/>
      <ItemData ItemOID="IT.OE.EPOCH" Value="TREATMENT"/>
      <ItemData ItemOID="IT.OE.OEDTC" Value="2013-04-02"/>
      <ItemData ItemOID="IT.OE.OEDY" Value="58"/>
    </ItemGroupData>
    <ItemGroupData ItemGroupOID="IG.OE" data:ItemGroupDataSeq="91">
      <ItemData ItemOID="IT.OE.STUDYID" Value="CDISCPILOT01"/>
      <ItemData ItemOID="IT.OE.DOMAIN" Value="OE"/>
      <ItemData ItemOID="IT.OE.USUBJID" Value="CDISC005"/>
      <ItemData ItemOID="IT.OE.FOCID" Value="OS"/>
      <ItemData ItemOID="IT.OE.OESEQ" Value="12"/>
      <ItemData ItemOID="IT.OE.OETESTCD" Value="INTP"/>
      <ItemData ItemOID="IT.OE.OETEST" Value="Interpretation"/>
      <ItemData ItemOID="IT.OE.OEORRES" Value="NORMAL"/>
      <ItemData ItemOID="IT.OE.OESTRESC" Value="NORMAL"/>
      <ItemData ItemOID="IT.OE.OELOC" Value="EYE"/>
      <ItemData ItemOID="IT.OE.OELAT" Value="LEFT"/>
      <ItemData ItemOID="IT.OE.OEMETHOD" Value="SLIT LAMP"/>
      <ItemData ItemOID="IT.OE.VISITNUM" Value="8"/>
      <ItemData ItemOID="IT.OE.VISIT" Value="WEEK 8"/>
      <ItemData ItemOID="IT.OE.EPOCH" Value="TREATMENT"/>
      <ItemData ItemOID="IT.OE.OEDTC" Value="2013-04-02"/>
      <ItemData ItemOID="IT.OE.OEDY" Value="58"/>
    </ItemGroupData>
    <ItemGroupData ItemGroupOID="IG.OE" data:ItemGroupDataSeq="92">
      <ItemData ItemOID="IT.OE.STUDYID" Value="CDISCPILOT01"/>
      <ItemData ItemOID="IT.OE.DOMAIN" Value="OE"/>
      <ItemData ItemOID="IT.OE.USUBJID" Value="CDISC005"/>
      <ItemData ItemOID="IT.OE.FOCID" Value="OD"/>
      <ItemData ItemOID="IT.OE.OESEQ" Value="13"/>
      <ItemData ItemOID="IT.OE.OETESTCD" Value="INTP"/>
      <ItemData ItemOID="IT.OE.OETEST" Value="Interpretation"/>
      <ItemData ItemOID="IT.OE.OEORRES" Value="NORMAL"/>
      <ItemData ItemOID="IT.OE.OESTRESC" Value="NORMAL"/>
      <ItemData ItemOID="IT.OE.OELOC" Value="EYE"/>
      <ItemData ItemOID="IT.OE.OELAT" Value="RIGHT"/>
      <ItemData ItemOID="IT.OE.OEMETHOD" Value="SLIT LAMP"/>
      <ItemData ItemOID="IT.OE.VISITNUM" Value="9"/>
      <ItemData ItemOID="IT.OE.VISIT" Value="WEEK 12"/>
      <ItemData ItemOID="IT.OE.EPOCH" Value="TREATMENT"/>
      <ItemData ItemOID="IT.OE.OEDTC" Value="2013-04-30"/>
      <ItemData ItemOID="IT.OE.OEDY" Value="86"/>
    </ItemGroupData>
    <ItemGroupData ItemGroupOID="IG.OE" data:ItemGroupDataSeq="93">
      <ItemData ItemOID="IT.OE.STUDYID" Value="CDISCPILOT01"/>
      <ItemData ItemOID="IT.OE.DOMAIN" Value="OE"/>
      <ItemData ItemOID="IT.OE.USUBJID" Value="CDISC005"/>
      <ItemData ItemOID="IT.OE.FOCID" Value="OS"/>
      <ItemData ItemOID="IT.OE.OESEQ" Value="14"/>
      <ItemData ItemOID="IT.OE.OETESTCD" Value="INTP"/>
      <ItemData ItemOID="IT.OE.OETEST" Value="Interpretation"/>
      <ItemData ItemOID="IT.OE.OEORRES" Value="NORMAL"/>
      <ItemData ItemOID="IT.OE.OESTRESC" Value="NORMAL"/>
      <ItemData ItemOID="IT.OE.OELOC" Value="EYE"/>
      <ItemData ItemOID="IT.OE.OELAT" Value="LEFT"/>
      <ItemData ItemOID="IT.OE.OEMETHOD" Value="SLIT LAMP"/>
      <ItemData ItemOID="IT.OE.VISITNUM" Value="9"/>
      <ItemData ItemOID="IT.OE.VISIT" Value="WEEK 12"/>
      <ItemData ItemOID="IT.OE.EPOCH" Value="TREATMENT"/>
      <ItemData ItemOID="IT.OE.OEDTC" Value="2013-04-30"/>
      <ItemData ItemOID="IT.OE.OEDY" Value="86"/>
    </ItemGroupData>
    <ItemGroupData ItemGroupOID="IG.OE" data:ItemGroupDataSeq="94">
      <ItemData ItemOID="IT.OE.STUDYID" Value="CDISCPILOT01"/>
      <ItemData ItemOID="IT.OE.DOMAIN" Value="OE"/>
      <ItemData ItemOID="IT.OE.USUBJID" Value="CDISC005"/>
      <ItemData ItemOID="IT.OE.FOCID" Value="OD"/>
      <ItemData ItemOID="IT.OE.OESEQ" Value="15"/>
      <ItemData ItemOID="IT.OE.OETESTCD" Value="INTP"/>
      <ItemData ItemOID="IT.OE.OETEST" Value="Interpretation"/>
      <ItemData ItemOID="IT.OE.OEORRES" Value="NORMAL"/>
      <ItemData ItemOID="IT.OE.OESTRESC" Value="NORMAL"/>
      <ItemData ItemOID="IT.OE.OELOC" Value="EYE"/>
      <ItemData ItemOID="IT.OE.OELAT" Value="RIGHT"/>
      <ItemData ItemOID="IT.OE.OEMETHOD" Value="SLIT LAMP"/>
      <ItemData ItemOID="IT.OE.VISITNUM" Value="10"/>
      <ItemData ItemOID="IT.OE.VISIT" Value="WEEK 16"/>
      <ItemData ItemOID="IT.OE.EPOCH" Value="TREATMENT"/>
      <ItemData ItemOID="IT.OE.OEDTC" Value="2013-05-30"/>
      <ItemData ItemOID="IT.OE.OEDY" Value="116"/>
    </ItemGroupData>
    <ItemGroupData ItemGroupOID="IG.OE" data:ItemGroupDataSeq="95">
      <ItemData ItemOID="IT.OE.STUDYID" Value="CDISCPILOT01"/>
      <ItemData ItemOID="IT.OE.DOMAIN" Value="OE"/>
      <ItemData ItemOID="IT.OE.USUBJID" Value="CDISC005"/>
      <ItemData ItemOID="IT.OE.FOCID" Value="OS"/>
      <ItemData ItemOID="IT.OE.OESEQ" Value="16"/>
      <ItemData ItemOID="IT.OE.OETESTCD" Value="INTP"/>
      <ItemData ItemOID="IT.OE.OETEST" Value="Interpretation"/>
      <ItemData ItemOID="IT.OE.OEORRES" Value="NORMAL"/>
      <ItemData ItemOID="IT.OE.OESTRESC" Value="NORMAL"/>
      <ItemData ItemOID="IT.OE.OELOC" Value="EYE"/>
      <ItemData ItemOID="IT.OE.OELAT" Value="LEFT"/>
      <ItemData ItemOID="IT.OE.OEMETHOD" Value="SLIT LAMP"/>
      <ItemData ItemOID="IT.OE.VISITNUM" Value="10"/>
      <ItemData ItemOID="IT.OE.VISIT" Value="WEEK 16"/>
      <ItemData ItemOID="IT.OE.EPOCH" Value="TREATMENT"/>
      <ItemData ItemOID="IT.OE.OEDTC" Value="2013-05-30"/>
      <ItemData ItemOID="IT.OE.OEDY" Value="116"/>
    </ItemGroupData>
    <ItemGroupData ItemGroupOID="IG.OE" data:ItemGroupDataSeq="96">
      <ItemData ItemOID="IT.OE.STUDYID" Value="CDISCPILOT01"/>
      <ItemData ItemOID="IT.OE.DOMAIN" Value="OE"/>
      <ItemData ItemOID="IT.OE.USUBJID" Value="CDISC005"/>
      <ItemData ItemOID="IT.OE.FOCID" Value="OD"/>
      <ItemData ItemOID="IT.OE.OESEQ" Value="17"/>
      <ItemData ItemOID="IT.OE.OETESTCD" Value="INTP"/>
      <ItemData ItemOID="IT.OE.OETEST" Value="Interpretation"/>
      <ItemData ItemOID="IT.OE.OEORRES" Value="NORMAL"/>
      <ItemData ItemOID="IT.OE.OESTRESC" Value="NORMAL"/>
      <ItemData ItemOID="IT.OE.OELOC" Value="EYE"/>
      <ItemData ItemOID="IT.OE.OELAT" Value="RIGHT"/>
      <ItemData ItemOID="IT.OE.OEMETHOD" Value="SLIT LAMP"/>
      <ItemData ItemOID="IT.OE.VISITNUM" Value="11"/>
      <ItemData ItemOID="IT.OE.VISIT" Value="WEEK 20"/>
      <ItemData ItemOID="IT.OE.EPOCH" Value="TREATMENT"/>
      <ItemData ItemOID="IT.OE.OEDTC" Value="2013-06-25"/>
      <ItemData ItemOID="IT.OE.OEDY" Value="142"/>
    </ItemGroupData>
    <ItemGroupData ItemGroupOID="IG.OE" data:ItemGroupDataSeq="97">
      <ItemData ItemOID="IT.OE.STUDYID" Value="CDISCPILOT01"/>
      <ItemData ItemOID="IT.OE.DOMAIN" Value="OE"/>
      <ItemData ItemOID="IT.OE.USUBJID" Value="CDISC005"/>
      <ItemData ItemOID="IT.OE.FOCID" Value="OS"/>
      <ItemData ItemOID="IT.OE.OESEQ" Value="18"/>
      <ItemData ItemOID="IT.OE.OETESTCD" Value="INTP"/>
      <ItemData ItemOID="IT.OE.OETEST" Value="Interpretation"/>
      <ItemData ItemOID="IT.OE.OEORRES" Value="NORMAL"/>
      <ItemData ItemOID="IT.OE.OESTRESC" Value="NORMAL"/>
      <ItemData ItemOID="IT.OE.OELOC" Value="EYE"/>
      <ItemData ItemOID="IT.OE.OELAT" Value="LEFT"/>
      <ItemData ItemOID="IT.OE.OEMETHOD" Value="SLIT LAMP"/>
      <ItemData ItemOID="IT.OE.VISITNUM" Value="11"/>
      <ItemData ItemOID="IT.OE.VISIT" Value="WEEK 20"/>
      <ItemData ItemOID="IT.OE.EPOCH" Value="TREATMENT"/>
      <ItemData ItemOID="IT.OE.OEDTC" Value="2013-06-25"/>
      <ItemData ItemOID="IT.OE.OEDY" Value="142"/>
    </ItemGroupData>
    <ItemGroupData ItemGroupOID="IG.OE" data:ItemGroupDataSeq="98">
      <ItemData ItemOID="IT.OE.STUDYID" Value="CDISCPILOT01"/>
      <ItemData ItemOID="IT.OE.DOMAIN" Value="OE"/>
      <ItemData ItemOID="IT.OE.USUBJID" Value="CDISC005"/>
      <ItemData ItemOID="IT.OE.FOCID" Value="OD"/>
      <ItemData ItemOID="IT.OE.OESEQ" Value="19"/>
      <ItemData ItemOID="IT.OE.OETESTCD" Value="INTP"/>
      <ItemData ItemOID="IT.OE.OETEST" Value="Interpretation"/>
      <ItemData ItemOID="IT.OE.OEORRES" Value="NORMAL"/>
      <ItemData ItemOID="IT.OE.OESTRESC" Value="NORMAL"/>
      <ItemData ItemOID="IT.OE.OELOC" Value="EYE"/>
      <ItemData ItemOID="IT.OE.OELAT" Value="RIGHT"/>
      <ItemData ItemOID="IT.OE.OEMETHOD" Value="SLIT LAMP"/>
      <ItemData ItemOID="IT.OE.VISITNUM" Value="12"/>
      <ItemData ItemOID="IT.OE.VISIT" Value="WEEK 24"/>
      <ItemData ItemOID="IT.OE.EPOCH" Value="TREATMENT"/>
      <ItemData ItemOID="IT.OE.OEDTC" Value="2013-07-30"/>
      <ItemData ItemOID="IT.OE.OEDY" Value="177"/>
    </ItemGroupData>
    <ItemGroupData ItemGroupOID="IG.OE" data:ItemGroupDataSeq="99">
      <ItemData ItemOID="IT.OE.STUDYID" Value="CDISCPILOT01"/>
      <ItemData ItemOID="IT.OE.DOMAIN" Value="OE"/>
      <ItemData ItemOID="IT.OE.USUBJID" Value="CDISC005"/>
      <ItemData ItemOID="IT.OE.FOCID" Value="OS"/>
      <ItemData ItemOID="IT.OE.OESEQ" Value="20"/>
      <ItemData ItemOID="IT.OE.OETESTCD" Value="INTP"/>
      <ItemData ItemOID="IT.OE.OETEST" Value="Interpretation"/>
      <ItemData ItemOID="IT.OE.OEORRES" Value="NORMAL"/>
      <ItemData ItemOID="IT.OE.OESTRESC" Value="NORMAL"/>
      <ItemData ItemOID="IT.OE.OELOC" Value="EYE"/>
      <ItemData ItemOID="IT.OE.OELAT" Value="LEFT"/>
      <ItemData ItemOID="IT.OE.OEMETHOD" Value="SLIT LAMP"/>
      <ItemData ItemOID="IT.OE.VISITNUM" Value="12"/>
      <ItemData ItemOID="IT.OE.VISIT" Value="WEEK 24"/>
      <ItemData ItemOID="IT.OE.EPOCH" Value="TREATMENT"/>
      <ItemData ItemOID="IT.OE.OEDTC" Value="2013-07-30"/>
      <ItemData ItemOID="IT.OE.OEDY" Value="177"/>
    </ItemGroupData>
    <ItemGroupData ItemGroupOID="IG.OE" data:ItemGroupDataSeq="100">
      <ItemData ItemOID="IT.OE.STUDYID" Value="CDISCPILOT01"/>
      <ItemData ItemOID="IT.OE.DOMAIN" Value="OE"/>
      <ItemData ItemOID="IT.OE.USUBJID" Value="CDISC005"/>
      <ItemData ItemOID="IT.OE.FOCID" Value="OD"/>
      <ItemData ItemOID="IT.OE.OESEQ" Value="21"/>
      <ItemData ItemOID="IT.OE.OETESTCD" Value="INTP"/>
      <ItemData ItemOID="IT.OE.OETEST" Value="Interpretation"/>
      <ItemData ItemOID="IT.OE.OEORRES" Value="NORMAL"/>
      <ItemData ItemOID="IT.OE.OESTRESC" Value="NORMAL"/>
      <ItemData ItemOID="IT.OE.OELOC" Value="EYE"/>
      <ItemData ItemOID="IT.OE.OELAT" Value="RIGHT"/>
      <ItemData ItemOID="IT.OE.OEMETHOD" Value="SLIT LAMP"/>
      <ItemData ItemOID="IT.OE.VISITNUM" Value="13"/>
      <ItemData ItemOID="IT.OE.VISIT" Value="WEEK 26"/>
      <ItemData ItemOID="IT.OE.EPOCH" Value="TREATMENT"/>
      <ItemData ItemOID="IT.OE.OEDTC" Value="2013-08-06"/>
      <ItemData ItemOID="IT.OE.OEDY" Value="184"/>
    </ItemGroupData>
    <ItemGroupData ItemGroupOID="IG.OE" data:ItemGroupDataSeq="101">
      <ItemData ItemOID="IT.OE.STUDYID" Value="CDISCPILOT01"/>
      <ItemData ItemOID="IT.OE.DOMAIN" Value="OE"/>
      <ItemData ItemOID="IT.OE.USUBJID" Value="CDISC005"/>
      <ItemData ItemOID="IT.OE.FOCID" Value="OS"/>
      <ItemData ItemOID="IT.OE.OESEQ" Value="22"/>
      <ItemData ItemOID="IT.OE.OETESTCD" Value="INTP"/>
      <ItemData ItemOID="IT.OE.OETEST" Value="Interpretation"/>
      <ItemData ItemOID="IT.OE.OEORRES" Value="NORMAL"/>
      <ItemData ItemOID="IT.OE.OESTRESC" Value="NORMAL"/>
      <ItemData ItemOID="IT.OE.OELOC" Value="EYE"/>
      <ItemData ItemOID="IT.OE.OELAT" Value="LEFT"/>
      <ItemData ItemOID="IT.OE.OEMETHOD" Value="SLIT LAMP"/>
      <ItemData ItemOID="IT.OE.VISITNUM" Value="13"/>
      <ItemData ItemOID="IT.OE.VISIT" Value="WEEK 26"/>
      <ItemData ItemOID="IT.OE.EPOCH" Value="TREATMENT"/>
      <ItemData ItemOID="IT.OE.OEDTC" Value="2013-08-06"/>
      <ItemData ItemOID="IT.OE.OEDY" Value="184"/>
    </ItemGroupData>
    <ItemGroupData ItemGroupOID="IG.OE" data:ItemGroupDataSeq="102">
      <ItemData ItemOID="IT.OE.STUDYID" Value="CDISCPILOT01"/>
      <ItemData ItemOID="IT.OE.DOMAIN" Value="OE"/>
      <ItemData ItemOID="IT.OE.USUBJID" Value="CDISC006"/>
      <ItemData ItemOID="IT.OE.FOCID" Value="OD"/>
      <ItemData ItemOID="IT.OE.OESEQ" Value="1"/>
      <ItemData ItemOID="IT.OE.OETESTCD" Value="INTP"/>
      <ItemData ItemOID="IT.OE.OETEST" Value="Interpretation"/>
      <ItemData ItemOID="IT.OE.OEORRES" Value="NORMAL"/>
      <ItemData ItemOID="IT.OE.OESTRESC" Value="NORMAL"/>
      <ItemData ItemOID="IT.OE.OELOC" Value="EYE"/>
      <ItemData ItemOID="IT.OE.OELAT" Value="RIGHT"/>
      <ItemData ItemOID="IT.OE.OEMETHOD" Value="SLIT LAMP"/>
      <ItemData ItemOID="IT.OE.VISITNUM" Value="1"/>
      <ItemData ItemOID="IT.OE.VISIT" Value="SCREENING 1"/>
      <ItemData ItemOID="IT.OE.EPOCH" Value="SCREENING"/>
      <ItemData ItemOID="IT.OE.OEDTC" Value="2013-02-25"/>
      <ItemData ItemOID="IT.OE.OEDY" Value="-22"/>
    </ItemGroupData>
    <ItemGroupData ItemGroupOID="IG.OE" data:ItemGroupDataSeq="103">
      <ItemData ItemOID="IT.OE.STUDYID" Value="CDISCPILOT01"/>
      <ItemData ItemOID="IT.OE.DOMAIN" Value="OE"/>
      <ItemData ItemOID="IT.OE.USUBJID" Value="CDISC006"/>
      <ItemData ItemOID="IT.OE.FOCID" Value="OS"/>
      <ItemData ItemOID="IT.OE.OESEQ" Value="2"/>
      <ItemData ItemOID="IT.OE.OETESTCD" Value="INTP"/>
      <ItemData ItemOID="IT.OE.OETEST" Value="Interpretation"/>
      <ItemData ItemOID="IT.OE.OEORRES" Value="NORMAL"/>
      <ItemData ItemOID="IT.OE.OESTRESC" Value="NORMAL"/>
      <ItemData ItemOID="IT.OE.OELOC" Value="EYE"/>
      <ItemData ItemOID="IT.OE.OELAT" Value="LEFT"/>
      <ItemData ItemOID="IT.OE.OEMETHOD" Value="SLIT LAMP"/>
      <ItemData ItemOID="IT.OE.VISITNUM" Value="1"/>
      <ItemData ItemOID="IT.OE.VISIT" Value="SCREENING 1"/>
      <ItemData ItemOID="IT.OE.EPOCH" Value="SCREENING"/>
      <ItemData ItemOID="IT.OE.OEDTC" Value="2013-02-25"/>
      <ItemData ItemOID="IT.OE.OEDY" Value="-22"/>
    </ItemGroupData>
    <ItemGroupData ItemGroupOID="IG.OE" data:ItemGroupDataSeq="104">
      <ItemData ItemOID="IT.OE.STUDYID" Value="CDISCPILOT01"/>
      <ItemData ItemOID="IT.OE.DOMAIN" Value="OE"/>
      <ItemData ItemOID="IT.OE.USUBJID" Value="CDISC006"/>
      <ItemData ItemOID="IT.OE.FOCID" Value="OD"/>
      <ItemData ItemOID="IT.OE.OESEQ" Value="3"/>
      <ItemData ItemOID="IT.OE.OETESTCD" Value="INTP"/>
      <ItemData ItemOID="IT.OE.OETEST" Value="Interpretation"/>
      <ItemData ItemOID="IT.OE.OEORRES" Value="NORMAL"/>
      <ItemData ItemOID="IT.OE.OESTRESC" Value="NORMAL"/>
      <ItemData ItemOID="IT.OE.OELOC" Value="EYE"/>
      <ItemData ItemOID="IT.OE.OELAT" Value="RIGHT"/>
      <ItemData ItemOID="IT.OE.OEMETHOD" Value="SLIT LAMP"/>
      <ItemData ItemOID="IT.OE.VISITNUM" Value="2"/>
      <ItemData ItemOID="IT.OE.VISIT" Value="SCREENING 2"/>
      <ItemData ItemOID="IT.OE.EPOCH" Value="SCREENING"/>
      <ItemData ItemOID="IT.OE.OEDTC" Value="2013-03-17"/>
      <ItemData ItemOID="IT.OE.OEDY" Value="-2"/>
    </ItemGroupData>
    <ItemGroupData ItemGroupOID="IG.OE" data:ItemGroupDataSeq="105">
      <ItemData ItemOID="IT.OE.STUDYID" Value="CDISCPILOT01"/>
      <ItemData ItemOID="IT.OE.DOMAIN" Value="OE"/>
      <ItemData ItemOID="IT.OE.USUBJID" Value="CDISC006"/>
      <ItemData ItemOID="IT.OE.FOCID" Value="OS"/>
      <ItemData ItemOID="IT.OE.OESEQ" Value="4"/>
      <ItemData ItemOID="IT.OE.OETESTCD" Value="INTP"/>
      <ItemData ItemOID="IT.OE.OETEST" Value="Interpretation"/>
      <ItemData ItemOID="IT.OE.OEORRES" Value="NORMAL"/>
      <ItemData ItemOID="IT.OE.OESTRESC" Value="NORMAL"/>
      <ItemData ItemOID="IT.OE.OELOC" Value="EYE"/>
      <ItemData ItemOID="IT.OE.OELAT" Value="LEFT"/>
      <ItemData ItemOID="IT.OE.OEMETHOD" Value="SLIT LAMP"/>
      <ItemData ItemOID="IT.OE.VISITNUM" Value="2"/>
      <ItemData ItemOID="IT.OE.VISIT" Value="SCREENING 2"/>
      <ItemData ItemOID="IT.OE.EPOCH" Value="SCREENING"/>
      <ItemData ItemOID="IT.OE.OEDTC" Value="2013-03-17"/>
      <ItemData ItemOID="IT.OE.OEDY" Value="-2"/>
    </ItemGroupData>
    <ItemGroupData ItemGroupOID="IG.OE" data:ItemGroupDataSeq="106">
      <ItemData ItemOID="IT.OE.STUDYID" Value="CDISCPILOT01"/>
      <ItemData ItemOID="IT.OE.DOMAIN" Value="OE"/>
      <ItemData ItemOID="IT.OE.USUBJID" Value="CDISC006"/>
      <ItemData ItemOID="IT.OE.FOCID" Value="OD"/>
      <ItemData ItemOID="IT.OE.OESEQ" Value="5"/>
      <ItemData ItemOID="IT.OE.OETESTCD" Value="INTP"/>
      <ItemData ItemOID="IT.OE.OETEST" Value="Interpretation"/>
      <ItemData ItemOID="IT.OE.OEORRES" Value="NORMAL"/>
      <ItemData ItemOID="IT.OE.OESTRESC" Value="NORMAL"/>
      <ItemData ItemOID="IT.OE.OELOC" Value="EYE"/>
      <ItemData ItemOID="IT.OE.OELAT" Value="RIGHT"/>
      <ItemData ItemOID="IT.OE.OEMETHOD" Value="SLIT LAMP"/>
      <ItemData ItemOID="IT.OE.OELOBXFL" Value="Y"/>
      <ItemData ItemOID="IT.OE.VISITNUM" Value="3"/>
      <ItemData ItemOID="IT.OE.VISIT" Value="BASELINE"/>
      <ItemData ItemOID="IT.OE.EPOCH" Value="SCREENING"/>
      <ItemData ItemOID="IT.OE.OEDTC" Value="2013-03-19"/>
      <ItemData ItemOID="IT.OE.OEDY" Value="1"/>
    </ItemGroupData>
    <ItemGroupData ItemGroupOID="IG.OE" data:ItemGroupDataSeq="107">
      <ItemData ItemOID="IT.OE.STUDYID" Value="CDISCPILOT01"/>
      <ItemData ItemOID="IT.OE.DOMAIN" Value="OE"/>
      <ItemData ItemOID="IT.OE.USUBJID" Value="CDISC006"/>
      <ItemData ItemOID="IT.OE.FOCID" Value="OS"/>
      <ItemData ItemOID="IT.OE.OESEQ" Value="6"/>
      <ItemData ItemOID="IT.OE.OETESTCD" Value="INTP"/>
      <ItemData ItemOID="IT.OE.OETEST" Value="Interpretation"/>
      <ItemData ItemOID="IT.OE.OEORRES" Value="NORMAL"/>
      <ItemData ItemOID="IT.OE.OESTRESC" Value="NORMAL"/>
      <ItemData ItemOID="IT.OE.OELOC" Value="EYE"/>
      <ItemData ItemOID="IT.OE.OELAT" Value="LEFT"/>
      <ItemData ItemOID="IT.OE.OEMETHOD" Value="SLIT LAMP"/>
      <ItemData ItemOID="IT.OE.OELOBXFL" Value="Y"/>
      <ItemData ItemOID="IT.OE.VISITNUM" Value="3"/>
      <ItemData ItemOID="IT.OE.VISIT" Value="BASELINE"/>
      <ItemData ItemOID="IT.OE.EPOCH" Value="SCREENING"/>
      <ItemData ItemOID="IT.OE.OEDTC" Value="2013-03-19"/>
      <ItemData ItemOID="IT.OE.OEDY" Value="1"/>
    </ItemGroupData>
    <ItemGroupData ItemGroupOID="IG.OE" data:ItemGroupDataSeq="108">
      <ItemData ItemOID="IT.OE.STUDYID" Value="CDISCPILOT01"/>
      <ItemData ItemOID="IT.OE.DOMAIN" Value="OE"/>
      <ItemData ItemOID="IT.OE.USUBJID" Value="CDISC006"/>
      <ItemData ItemOID="IT.OE.FOCID" Value="OD"/>
      <ItemData ItemOID="IT.OE.OESEQ" Value="7"/>
      <ItemData ItemOID="IT.OE.OETESTCD" Value="INTP"/>
      <ItemData ItemOID="IT.OE.OETEST" Value="Interpretation"/>
      <ItemData ItemOID="IT.OE.OEORRES" Value="NORMAL"/>
      <ItemData ItemOID="IT.OE.OESTRESC" Value="NORMAL"/>
      <ItemData ItemOID="IT.OE.OELOC" Value="EYE"/>
      <ItemData ItemOID="IT.OE.OELAT" Value="RIGHT"/>
      <ItemData ItemOID="IT.OE.OEMETHOD" Value="SLIT LAMP"/>
      <ItemData ItemOID="IT.OE.VISITNUM" Value="4"/>
      <ItemData ItemOID="IT.OE.VISIT" Value="WEEK 2"/>
      <ItemData ItemOID="IT.OE.EPOCH" Value="TREATMENT"/>
      <ItemData ItemOID="IT.OE.OEDTC" Value="2013-04-02"/>
      <ItemData ItemOID="IT.OE.OEDY" Value="15"/>
    </ItemGroupData>
    <ItemGroupData ItemGroupOID="IG.OE" data:ItemGroupDataSeq="109">
      <ItemData ItemOID="IT.OE.STUDYID" Value="CDISCPILOT01"/>
      <ItemData ItemOID="IT.OE.DOMAIN" Value="OE"/>
      <ItemData ItemOID="IT.OE.USUBJID" Value="CDISC006"/>
      <ItemData ItemOID="IT.OE.FOCID" Value="OS"/>
      <ItemData ItemOID="IT.OE.OESEQ" Value="8"/>
      <ItemData ItemOID="IT.OE.OETESTCD" Value="INTP"/>
      <ItemData ItemOID="IT.OE.OETEST" Value="Interpretation"/>
      <ItemData ItemOID="IT.OE.OEORRES" Value="NORMAL"/>
      <ItemData ItemOID="IT.OE.OESTRESC" Value="NORMAL"/>
      <ItemData ItemOID="IT.OE.OELOC" Value="EYE"/>
      <ItemData ItemOID="IT.OE.OELAT" Value="LEFT"/>
      <ItemData ItemOID="IT.OE.OEMETHOD" Value="SLIT LAMP"/>
      <ItemData ItemOID="IT.OE.VISITNUM" Value="4"/>
      <ItemData ItemOID="IT.OE.VISIT" Value="WEEK 2"/>
      <ItemData ItemOID="IT.OE.EPOCH" Value="TREATMENT"/>
      <ItemData ItemOID="IT.OE.OEDTC" Value="2013-04-02"/>
      <ItemData ItemOID="IT.OE.OEDY" Value="15"/>
    </ItemGroupData>
    <ItemGroupData ItemGroupOID="IG.OE" data:ItemGroupDataSeq="110">
      <ItemData ItemOID="IT.OE.STUDYID" Value="CDISCPILOT01"/>
      <ItemData ItemOID="IT.OE.DOMAIN" Value="OE"/>
      <ItemData ItemOID="IT.OE.USUBJID" Value="CDISC006"/>
      <ItemData ItemOID="IT.OE.FOCID" Value="OD"/>
      <ItemData ItemOID="IT.OE.OESEQ" Value="9"/>
      <ItemData ItemOID="IT.OE.OETESTCD" Value="INTP"/>
      <ItemData ItemOID="IT.OE.OETEST" Value="Interpretation"/>
      <ItemData ItemOID="IT.OE.OEORRES" Value="NORMAL"/>
      <ItemData ItemOID="IT.OE.OESTRESC" Value="NORMAL"/>
      <ItemData ItemOID="IT.OE.OELOC" Value="EYE"/>
      <ItemData ItemOID="IT.OE.OELAT" Value="RIGHT"/>
      <ItemData ItemOID="IT.OE.OEMETHOD" Value="SLIT LAMP"/>
      <ItemData ItemOID="IT.OE.VISITNUM" Value="5"/>
      <ItemData ItemOID="IT.OE.VISIT" Value="WEEK 4"/>
      <ItemData ItemOID="IT.OE.EPOCH" Value="TREATMENT"/>
      <ItemData ItemOID="IT.OE.OEDTC" Value="2013-04-16"/>
      <ItemData ItemOID="IT.OE.OEDY" Value="29"/>
    </ItemGroupData>
    <ItemGroupData ItemGroupOID="IG.OE" data:ItemGroupDataSeq="111">
      <ItemData ItemOID="IT.OE.STUDYID" Value="CDISCPILOT01"/>
      <ItemData ItemOID="IT.OE.DOMAIN" Value="OE"/>
      <ItemData ItemOID="IT.OE.USUBJID" Value="CDISC006"/>
      <ItemData ItemOID="IT.OE.FOCID" Value="OS"/>
      <ItemData ItemOID="IT.OE.OESEQ" Value="10"/>
      <ItemData ItemOID="IT.OE.OETESTCD" Value="INTP"/>
      <ItemData ItemOID="IT.OE.OETEST" Value="Interpretation"/>
      <ItemData ItemOID="IT.OE.OEORRES" Value="NORMAL"/>
      <ItemData ItemOID="IT.OE.OESTRESC" Value="NORMAL"/>
      <ItemData ItemOID="IT.OE.OELOC" Value="EYE"/>
      <ItemData ItemOID="IT.OE.OELAT" Value="LEFT"/>
      <ItemData ItemOID="IT.OE.OEMETHOD" Value="SLIT LAMP"/>
      <ItemData ItemOID="IT.OE.VISITNUM" Value="5"/>
      <ItemData ItemOID="IT.OE.VISIT" Value="WEEK 4"/>
      <ItemData ItemOID="IT.OE.EPOCH" Value="TREATMENT"/>
      <ItemData ItemOID="IT.OE.OEDTC" Value="2013-04-16"/>
      <ItemData ItemOID="IT.OE.OEDY" Value="29"/>
    </ItemGroupData>
    <ItemGroupData ItemGroupOID="IG.OE" data:ItemGroupDataSeq="112">
      <ItemData ItemOID="IT.OE.STUDYID" Value="CDISCPILOT01"/>
      <ItemData ItemOID="IT.OE.DOMAIN" Value="OE"/>
      <ItemData ItemOID="IT.OE.USUBJID" Value="CDISC007"/>
      <ItemData ItemOID="IT.OE.FOCID" Value="OD"/>
      <ItemData ItemOID="IT.OE.OESEQ" Value="1"/>
      <ItemData ItemOID="IT.OE.OETESTCD" Value="INTP"/>
      <ItemData ItemOID="IT.OE.OETEST" Value="Interpretation"/>
      <ItemData ItemOID="IT.OE.OEORRES" Value="NORMAL"/>
      <ItemData ItemOID="IT.OE.OESTRESC" Value="NORMAL"/>
      <ItemData ItemOID="IT.OE.OELOC" Value="EYE"/>
      <ItemData ItemOID="IT.OE.OELAT" Value="RIGHT"/>
      <ItemData ItemOID="IT.OE.OEMETHOD" Value="SLIT LAMP"/>
      <ItemData ItemOID="IT.OE.VISITNUM" Value="1"/>
      <ItemData ItemOID="IT.OE.VISIT" Value="SCREENING 1"/>
      <ItemData ItemOID="IT.OE.EPOCH" Value="SCREENING"/>
      <ItemData ItemOID="IT.OE.OEDTC" Value="2012-12-31"/>
      <ItemData ItemOID="IT.OE.OEDY" Value="-5"/>
    </ItemGroupData>
    <ItemGroupData ItemGroupOID="IG.OE" data:ItemGroupDataSeq="113">
      <ItemData ItemOID="IT.OE.STUDYID" Value="CDISCPILOT01"/>
      <ItemData ItemOID="IT.OE.DOMAIN" Value="OE"/>
      <ItemData ItemOID="IT.OE.USUBJID" Value="CDISC007"/>
      <ItemData ItemOID="IT.OE.FOCID" Value="OS"/>
      <ItemData ItemOID="IT.OE.OESEQ" Value="2"/>
      <ItemData ItemOID="IT.OE.OETESTCD" Value="INTP"/>
      <ItemData ItemOID="IT.OE.OETEST" Value="Interpretation"/>
      <ItemData ItemOID="IT.OE.OEORRES" Value="NORMAL"/>
      <ItemData ItemOID="IT.OE.OESTRESC" Value="NORMAL"/>
      <ItemData ItemOID="IT.OE.OELOC" Value="EYE"/>
      <ItemData ItemOID="IT.OE.OELAT" Value="LEFT"/>
      <ItemData ItemOID="IT.OE.OEMETHOD" Value="SLIT LAMP"/>
      <ItemData ItemOID="IT.OE.VISITNUM" Value="1"/>
      <ItemData ItemOID="IT.OE.VISIT" Value="SCREENING 1"/>
      <ItemData ItemOID="IT.OE.EPOCH" Value="SCREENING"/>
      <ItemData ItemOID="IT.OE.OEDTC" Value="2012-12-31"/>
      <ItemData ItemOID="IT.OE.OEDY" Value="-5"/>
    </ItemGroupData>
    <ItemGroupData ItemGroupOID="IG.OE" data:ItemGroupDataSeq="114">
      <ItemData ItemOID="IT.OE.STUDYID" Value="CDISCPILOT01"/>
      <ItemData ItemOID="IT.OE.DOMAIN" Value="OE"/>
      <ItemData ItemOID="IT.OE.USUBJID" Value="CDISC007"/>
      <ItemData ItemOID="IT.OE.FOCID" Value="OD"/>
      <ItemData ItemOID="IT.OE.OESEQ" Value="3"/>
      <ItemData ItemOID="IT.OE.OETESTCD" Value="INTP"/>
      <ItemData ItemOID="IT.OE.OETEST" Value="Interpretation"/>
      <ItemData ItemOID="IT.OE.OEORRES" Value="NORMAL"/>
      <ItemData ItemOID="IT.OE.OESTRESC" Value="NORMAL"/>
      <ItemData ItemOID="IT.OE.OELOC" Value="EYE"/>
      <ItemData ItemOID="IT.OE.OELAT" Value="RIGHT"/>
      <ItemData ItemOID="IT.OE.OEMETHOD" Value="SLIT LAMP"/>
      <ItemData ItemOID="IT.OE.VISITNUM" Value="2"/>
      <ItemData ItemOID="IT.OE.VISIT" Value="SCREENING 2"/>
      <ItemData ItemOID="IT.OE.EPOCH" Value="SCREENING"/>
      <ItemData ItemOID="IT.OE.OEDTC" Value="2013-01-03"/>
      <ItemData ItemOID="IT.OE.OEDY" Value="-2"/>
    </ItemGroupData>
    <ItemGroupData ItemGroupOID="IG.OE" data:ItemGroupDataSeq="115">
      <ItemData ItemOID="IT.OE.STUDYID" Value="CDISCPILOT01"/>
      <ItemData ItemOID="IT.OE.DOMAIN" Value="OE"/>
      <ItemData ItemOID="IT.OE.USUBJID" Value="CDISC007"/>
      <ItemData ItemOID="IT.OE.FOCID" Value="OS"/>
      <ItemData ItemOID="IT.OE.OESEQ" Value="4"/>
      <ItemData ItemOID="IT.OE.OETESTCD" Value="INTP"/>
      <ItemData ItemOID="IT.OE.OETEST" Value="Interpretation"/>
      <ItemData ItemOID="IT.OE.OEORRES" Value="NORMAL"/>
      <ItemData ItemOID="IT.OE.OESTRESC" Value="NORMAL"/>
      <ItemData ItemOID="IT.OE.OELOC" Value="EYE"/>
      <ItemData ItemOID="IT.OE.OELAT" Value="LEFT"/>
      <ItemData ItemOID="IT.OE.OEMETHOD" Value="SLIT LAMP"/>
      <ItemData ItemOID="IT.OE.VISITNUM" Value="2"/>
      <ItemData ItemOID="IT.OE.VISIT" Value="SCREENING 2"/>
      <ItemData ItemOID="IT.OE.EPOCH" Value="SCREENING"/>
      <ItemData ItemOID="IT.OE.OEDTC" Value="2013-01-03"/>
      <ItemData ItemOID="IT.OE.OEDY" Value="-2"/>
    </ItemGroupData>
    <ItemGroupData ItemGroupOID="IG.OE" data:ItemGroupDataSeq="116">
      <ItemData ItemOID="IT.OE.STUDYID" Value="CDISCPILOT01"/>
      <ItemData ItemOID="IT.OE.DOMAIN" Value="OE"/>
      <ItemData ItemOID="IT.OE.USUBJID" Value="CDISC007"/>
      <ItemData ItemOID="IT.OE.FOCID" Value="OD"/>
      <ItemData ItemOID="IT.OE.OESEQ" Value="5"/>
      <ItemData ItemOID="IT.OE.OETESTCD" Value="INTP"/>
      <ItemData ItemOID="IT.OE.OETEST" Value="Interpretation"/>
      <ItemData ItemOID="IT.OE.OEORRES" Value="NORMAL"/>
      <ItemData ItemOID="IT.OE.OESTRESC" Value="NORMAL"/>
      <ItemData ItemOID="IT.OE.OELOC" Value="EYE"/>
      <ItemData ItemOID="IT.OE.OELAT" Value="RIGHT"/>
      <ItemData ItemOID="IT.OE.OEMETHOD" Value="SLIT LAMP"/>
      <ItemData ItemOID="IT.OE.OELOBXFL" Value="Y"/>
      <ItemData ItemOID="IT.OE.VISITNUM" Value="3"/>
      <ItemData ItemOID="IT.OE.VISIT" Value="BASELINE"/>
      <ItemData ItemOID="IT.OE.EPOCH" Value="SCREENING"/>
      <ItemData ItemOID="IT.OE.OEDTC" Value="2013-01-05"/>
      <ItemData ItemOID="IT.OE.OEDY" Value="1"/>
    </ItemGroupData>
    <ItemGroupData ItemGroupOID="IG.OE" data:ItemGroupDataSeq="117">
      <ItemData ItemOID="IT.OE.STUDYID" Value="CDISCPILOT01"/>
      <ItemData ItemOID="IT.OE.DOMAIN" Value="OE"/>
      <ItemData ItemOID="IT.OE.USUBJID" Value="CDISC007"/>
      <ItemData ItemOID="IT.OE.FOCID" Value="OS"/>
      <ItemData ItemOID="IT.OE.OESEQ" Value="6"/>
      <ItemData ItemOID="IT.OE.OETESTCD" Value="INTP"/>
      <ItemData ItemOID="IT.OE.OETEST" Value="Interpretation"/>
      <ItemData ItemOID="IT.OE.OEORRES" Value="NORMAL"/>
      <ItemData ItemOID="IT.OE.OESTRESC" Value="NORMAL"/>
      <ItemData ItemOID="IT.OE.OELOC" Value="EYE"/>
      <ItemData ItemOID="IT.OE.OELAT" Value="LEFT"/>
      <ItemData ItemOID="IT.OE.OEMETHOD" Value="SLIT LAMP"/>
      <ItemData ItemOID="IT.OE.OELOBXFL" Value="Y"/>
      <ItemData ItemOID="IT.OE.VISITNUM" Value="3"/>
      <ItemData ItemOID="IT.OE.VISIT" Value="BASELINE"/>
      <ItemData ItemOID="IT.OE.EPOCH" Value="SCREENING"/>
      <ItemData ItemOID="IT.OE.OEDTC" Value="2013-01-05"/>
      <ItemData ItemOID="IT.OE.OEDY" Value="1"/>
    </ItemGroupData>
    <ItemGroupData ItemGroupOID="IG.OE" data:ItemGroupDataSeq="118">
      <ItemData ItemOID="IT.OE.STUDYID" Value="CDISCPILOT01"/>
      <ItemData ItemOID="IT.OE.DOMAIN" Value="OE"/>
      <ItemData ItemOID="IT.OE.USUBJID" Value="CDISC007"/>
      <ItemData ItemOID="IT.OE.FOCID" Value="OD"/>
      <ItemData ItemOID="IT.OE.OESEQ" Value="7"/>
      <ItemData ItemOID="IT.OE.OETESTCD" Value="INTP"/>
      <ItemData ItemOID="IT.OE.OETEST" Value="Interpretation"/>
      <ItemData ItemOID="IT.OE.OEORRES" Value="NORMAL"/>
      <ItemData ItemOID="IT.OE.OESTRESC" Value="NORMAL"/>
      <ItemData ItemOID="IT.OE.OELOC" Value="EYE"/>
      <ItemData ItemOID="IT.OE.OELAT" Value="RIGHT"/>
      <ItemData ItemOID="IT.OE.OEMETHOD" Value="SLIT LAMP"/>
      <ItemData ItemOID="IT.OE.VISITNUM" Value="4"/>
      <ItemData ItemOID="IT.OE.VISIT" Value="WEEK 2"/>
      <ItemData ItemOID="IT.OE.EPOCH" Value="TREATMENT"/>
      <ItemData ItemOID="IT.OE.OEDTC" Value="2013-01-18"/>
      <ItemData ItemOID="IT.OE.OEDY" Value="14"/>
    </ItemGroupData>
    <ItemGroupData ItemGroupOID="IG.OE" data:ItemGroupDataSeq="119">
      <ItemData ItemOID="IT.OE.STUDYID" Value="CDISCPILOT01"/>
      <ItemData ItemOID="IT.OE.DOMAIN" Value="OE"/>
      <ItemData ItemOID="IT.OE.USUBJID" Value="CDISC007"/>
      <ItemData ItemOID="IT.OE.FOCID" Value="OS"/>
      <ItemData ItemOID="IT.OE.OESEQ" Value="8"/>
      <ItemData ItemOID="IT.OE.OETESTCD" Value="INTP"/>
      <ItemData ItemOID="IT.OE.OETEST" Value="Interpretation"/>
      <ItemData ItemOID="IT.OE.OEORRES" Value="NORMAL"/>
      <ItemData ItemOID="IT.OE.OESTRESC" Value="NORMAL"/>
      <ItemData ItemOID="IT.OE.OELOC" Value="EYE"/>
      <ItemData ItemOID="IT.OE.OELAT" Value="LEFT"/>
      <ItemData ItemOID="IT.OE.OEMETHOD" Value="SLIT LAMP"/>
      <ItemData ItemOID="IT.OE.VISITNUM" Value="4"/>
      <ItemData ItemOID="IT.OE.VISIT" Value="WEEK 2"/>
      <ItemData ItemOID="IT.OE.EPOCH" Value="TREATMENT"/>
      <ItemData ItemOID="IT.OE.OEDTC" Value="2013-01-18"/>
      <ItemData ItemOID="IT.OE.OEDY" Value="14"/>
    </ItemGroupData>
    <ItemGroupData ItemGroupOID="IG.OE" data:ItemGroupDataSeq="120">
      <ItemData ItemOID="IT.OE.STUDYID" Value="CDISCPILOT01"/>
      <ItemData ItemOID="IT.OE.DOMAIN" Value="OE"/>
      <ItemData ItemOID="IT.OE.USUBJID" Value="CDISC007"/>
      <ItemData ItemOID="IT.OE.FOCID" Value="OD"/>
      <ItemData ItemOID="IT.OE.OESEQ" Value="9"/>
      <ItemData ItemOID="IT.OE.OETESTCD" Value="INTP"/>
      <ItemData ItemOID="IT.OE.OETEST" Value="Interpretation"/>
      <ItemData ItemOID="IT.OE.OEORRES" Value="NORMAL"/>
      <ItemData ItemOID="IT.OE.OESTRESC" Value="NORMAL"/>
      <ItemData ItemOID="IT.OE.OELOC" Value="EYE"/>
      <ItemData ItemOID="IT.OE.OELAT" Value="RIGHT"/>
      <ItemData ItemOID="IT.OE.OEMETHOD" Value="SLIT LAMP"/>
      <ItemData ItemOID="IT.OE.VISITNUM" Value="5"/>
      <ItemData ItemOID="IT.OE.VISIT" Value="WEEK 4"/>
      <ItemData ItemOID="IT.OE.EPOCH" Value="TREATMENT"/>
      <ItemData ItemOID="IT.OE.OEDTC" Value="2013-01-31"/>
      <ItemData ItemOID="IT.OE.OEDY" Value="27"/>
    </ItemGroupData>
    <ItemGroupData ItemGroupOID="IG.OE" data:ItemGroupDataSeq="121">
      <ItemData ItemOID="IT.OE.STUDYID" Value="CDISCPILOT01"/>
      <ItemData ItemOID="IT.OE.DOMAIN" Value="OE"/>
      <ItemData ItemOID="IT.OE.USUBJID" Value="CDISC007"/>
      <ItemData ItemOID="IT.OE.FOCID" Value="OS"/>
      <ItemData ItemOID="IT.OE.OESEQ" Value="10"/>
      <ItemData ItemOID="IT.OE.OETESTCD" Value="INTP"/>
      <ItemData ItemOID="IT.OE.OETEST" Value="Interpretation"/>
      <ItemData ItemOID="IT.OE.OEORRES" Value="NORMAL"/>
      <ItemData ItemOID="IT.OE.OESTRESC" Value="NORMAL"/>
      <ItemData ItemOID="IT.OE.OELOC" Value="EYE"/>
      <ItemData ItemOID="IT.OE.OELAT" Value="LEFT"/>
      <ItemData ItemOID="IT.OE.OEMETHOD" Value="SLIT LAMP"/>
      <ItemData ItemOID="IT.OE.VISITNUM" Value="5"/>
      <ItemData ItemOID="IT.OE.VISIT" Value="WEEK 4"/>
      <ItemData ItemOID="IT.OE.EPOCH" Value="TREATMENT"/>
      <ItemData ItemOID="IT.OE.OEDTC" Value="2013-01-31"/>
      <ItemData ItemOID="IT.OE.OEDY" Value="27"/>
    </ItemGroupData>
    <ItemGroupData ItemGroupOID="IG.OE" data:ItemGroupDataSeq="122">
      <ItemData ItemOID="IT.OE.STUDYID" Value="CDISCPILOT01"/>
      <ItemData ItemOID="IT.OE.DOMAIN" Value="OE"/>
      <ItemData ItemOID="IT.OE.USUBJID" Value="CDISC007"/>
      <ItemData ItemOID="IT.OE.FOCID" Value="OD"/>
      <ItemData ItemOID="IT.OE.OESEQ" Value="11"/>
      <ItemData ItemOID="IT.OE.OETESTCD" Value="INTP"/>
      <ItemData ItemOID="IT.OE.OETEST" Value="Interpretation"/>
      <ItemData ItemOID="IT.OE.OEORRES" Value="NORMAL"/>
      <ItemData ItemOID="IT.OE.OESTRESC" Value="NORMAL"/>
      <ItemData ItemOID="IT.OE.OELOC" Value="EYE"/>
      <ItemData ItemOID="IT.OE.OELAT" Value="RIGHT"/>
      <ItemData ItemOID="IT.OE.OEMETHOD" Value="SLIT LAMP"/>
      <ItemData ItemOID="IT.OE.VISITNUM" Value="201"/>
      <ItemData ItemOID="IT.OE.VISIT" Value="EARLY DISCONTINUATION RETRIEVAL"/>
      <ItemData ItemOID="IT.OE.EPOCH" Value="TREATMENT"/>
      <ItemData ItemOID="IT.OE.OEDTC" Value="2013-06-20"/>
      <ItemData ItemOID="IT.OE.OEDY" Value="167"/>
    </ItemGroupData>
    <ItemGroupData ItemGroupOID="IG.OE" data:ItemGroupDataSeq="123">
      <ItemData ItemOID="IT.OE.STUDYID" Value="CDISCPILOT01"/>
      <ItemData ItemOID="IT.OE.DOMAIN" Value="OE"/>
      <ItemData ItemOID="IT.OE.USUBJID" Value="CDISC007"/>
      <ItemData ItemOID="IT.OE.FOCID" Value="OS"/>
      <ItemData ItemOID="IT.OE.OESEQ" Value="12"/>
      <ItemData ItemOID="IT.OE.OETESTCD" Value="INTP"/>
      <ItemData ItemOID="IT.OE.OETEST" Value="Interpretation"/>
      <ItemData ItemOID="IT.OE.OEORRES" Value="NORMAL"/>
      <ItemData ItemOID="IT.OE.OESTRESC" Value="NORMAL"/>
      <ItemData ItemOID="IT.OE.OELOC" Value="EYE"/>
      <ItemData ItemOID="IT.OE.OELAT" Value="LEFT"/>
      <ItemData ItemOID="IT.OE.OEMETHOD" Value="SLIT LAMP"/>
      <ItemData ItemOID="IT.OE.VISITNUM" Value="201"/>
      <ItemData ItemOID="IT.OE.VISIT" Value="EARLY DISCONTINUATION RETRIEVAL"/>
      <ItemData ItemOID="IT.OE.EPOCH" Value="TREATMENT"/>
      <ItemData ItemOID="IT.OE.OEDTC" Value="2013-06-20"/>
      <ItemData ItemOID="IT.OE.OEDY" Value="167"/>
    </ItemGroupData>
    <ItemGroupData ItemGroupOID="IG.OE" data:ItemGroupDataSeq="124">
      <ItemData ItemOID="IT.OE.STUDYID" Value="CDISCPILOT01"/>
      <ItemData ItemOID="IT.OE.DOMAIN" Value="OE"/>
      <ItemData ItemOID="IT.OE.USUBJID" Value="CDISC008"/>
      <ItemData ItemOID="IT.OE.FOCID" Value="OD"/>
      <ItemData ItemOID="IT.OE.OESEQ" Value="1"/>
      <ItemData ItemOID="IT.OE.OETESTCD" Value="INTP"/>
      <ItemData ItemOID="IT.OE.OETEST" Value="Interpretation"/>
      <ItemData ItemOID="IT.OE.OEORRES" Value="NORMAL"/>
      <ItemData ItemOID="IT.OE.OESTRESC" Value="NORMAL"/>
      <ItemData ItemOID="IT.OE.OELOC" Value="EYE"/>
      <ItemData ItemOID="IT.OE.OELAT" Value="RIGHT"/>
      <ItemData ItemOID="IT.OE.OEMETHOD" Value="SLIT LAMP"/>
      <ItemData ItemOID="IT.OE.VISITNUM" Value="1"/>
      <ItemData ItemOID="IT.OE.VISIT" Value="SCREENING 1"/>
      <ItemData ItemOID="IT.OE.EPOCH" Value="SCREENING"/>
      <ItemData ItemOID="IT.OE.OEDTC" Value="2014-05-01"/>
      <ItemData ItemOID="IT.OE.OEDY" Value="-10"/>
    </ItemGroupData>
    <ItemGroupData ItemGroupOID="IG.OE" data:ItemGroupDataSeq="125">
      <ItemData ItemOID="IT.OE.STUDYID" Value="CDISCPILOT01"/>
      <ItemData ItemOID="IT.OE.DOMAIN" Value="OE"/>
      <ItemData ItemOID="IT.OE.USUBJID" Value="CDISC008"/>
      <ItemData ItemOID="IT.OE.FOCID" Value="OS"/>
      <ItemData ItemOID="IT.OE.OESEQ" Value="2"/>
      <ItemData ItemOID="IT.OE.OETESTCD" Value="INTP"/>
      <ItemData ItemOID="IT.OE.OETEST" Value="Interpretation"/>
      <ItemData ItemOID="IT.OE.OEORRES" Value="NORMAL"/>
      <ItemData ItemOID="IT.OE.OESTRESC" Value="NORMAL"/>
      <ItemData ItemOID="IT.OE.OELOC" Value="EYE"/>
      <ItemData ItemOID="IT.OE.OELAT" Value="LEFT"/>
      <ItemData ItemOID="IT.OE.OEMETHOD" Value="SLIT LAMP"/>
      <ItemData ItemOID="IT.OE.VISITNUM" Value="1"/>
      <ItemData ItemOID="IT.OE.VISIT" Value="SCREENING 1"/>
      <ItemData ItemOID="IT.OE.EPOCH" Value="SCREENING"/>
      <ItemData ItemOID="IT.OE.OEDTC" Value="2014-05-01"/>
      <ItemData ItemOID="IT.OE.OEDY" Value="-10"/>
    </ItemGroupData>
    <ItemGroupData ItemGroupOID="IG.OE" data:ItemGroupDataSeq="126">
      <ItemData ItemOID="IT.OE.STUDYID" Value="CDISCPILOT01"/>
      <ItemData ItemOID="IT.OE.DOMAIN" Value="OE"/>
      <ItemData ItemOID="IT.OE.USUBJID" Value="CDISC008"/>
      <ItemData ItemOID="IT.OE.FOCID" Value="OD"/>
      <ItemData ItemOID="IT.OE.OESEQ" Value="3"/>
      <ItemData ItemOID="IT.OE.OETESTCD" Value="INTP"/>
      <ItemData ItemOID="IT.OE.OETEST" Value="Interpretation"/>
      <ItemData ItemOID="IT.OE.OEORRES" Value="NORMAL"/>
      <ItemData ItemOID="IT.OE.OESTRESC" Value="NORMAL"/>
      <ItemData ItemOID="IT.OE.OELOC" Value="EYE"/>
      <ItemData ItemOID="IT.OE.OELAT" Value="RIGHT"/>
      <ItemData ItemOID="IT.OE.OEMETHOD" Value="SLIT LAMP"/>
      <ItemData ItemOID="IT.OE.VISITNUM" Value="2"/>
      <ItemData ItemOID="IT.OE.VISIT" Value="SCREENING 2"/>
      <ItemData ItemOID="IT.OE.EPOCH" Value="SCREENING"/>
      <ItemData ItemOID="IT.OE.OEDTC" Value="2014-05-09"/>
      <ItemData ItemOID="IT.OE.OEDY" Value="-2"/>
    </ItemGroupData>
    <ItemGroupData ItemGroupOID="IG.OE" data:ItemGroupDataSeq="127">
      <ItemData ItemOID="IT.OE.STUDYID" Value="CDISCPILOT01"/>
      <ItemData ItemOID="IT.OE.DOMAIN" Value="OE"/>
      <ItemData ItemOID="IT.OE.USUBJID" Value="CDISC008"/>
      <ItemData ItemOID="IT.OE.FOCID" Value="OS"/>
      <ItemData ItemOID="IT.OE.OESEQ" Value="4"/>
      <ItemData ItemOID="IT.OE.OETESTCD" Value="INTP"/>
      <ItemData ItemOID="IT.OE.OETEST" Value="Interpretation"/>
      <ItemData ItemOID="IT.OE.OEORRES" Value="NORMAL"/>
      <ItemData ItemOID="IT.OE.OESTRESC" Value="NORMAL"/>
      <ItemData ItemOID="IT.OE.OELOC" Value="EYE"/>
      <ItemData ItemOID="IT.OE.OELAT" Value="LEFT"/>
      <ItemData ItemOID="IT.OE.OEMETHOD" Value="SLIT LAMP"/>
      <ItemData ItemOID="IT.OE.VISITNUM" Value="2"/>
      <ItemData ItemOID="IT.OE.VISIT" Value="SCREENING 2"/>
      <ItemData ItemOID="IT.OE.EPOCH" Value="SCREENING"/>
      <ItemData ItemOID="IT.OE.OEDTC" Value="2014-05-09"/>
      <ItemData ItemOID="IT.OE.OEDY" Value="-2"/>
    </ItemGroupData>
    <ItemGroupData ItemGroupOID="IG.OE" data:ItemGroupDataSeq="128">
      <ItemData ItemOID="IT.OE.STUDYID" Value="CDISCPILOT01"/>
      <ItemData ItemOID="IT.OE.DOMAIN" Value="OE"/>
      <ItemData ItemOID="IT.OE.USUBJID" Value="CDISC008"/>
      <ItemData ItemOID="IT.OE.FOCID" Value="OD"/>
      <ItemData ItemOID="IT.OE.OESEQ" Value="5"/>
      <ItemData ItemOID="IT.OE.OETESTCD" Value="INTP"/>
      <ItemData ItemOID="IT.OE.OETEST" Value="Interpretation"/>
      <ItemData ItemOID="IT.OE.OEORRES" Value="NORMAL"/>
      <ItemData ItemOID="IT.OE.OESTRESC" Value="NORMAL"/>
      <ItemData ItemOID="IT.OE.OELOC" Value="EYE"/>
      <ItemData ItemOID="IT.OE.OELAT" Value="RIGHT"/>
      <ItemData ItemOID="IT.OE.OEMETHOD" Value="SLIT LAMP"/>
      <ItemData ItemOID="IT.OE.OELOBXFL" Value="Y"/>
      <ItemData ItemOID="IT.OE.VISITNUM" Value="3"/>
      <ItemData ItemOID="IT.OE.VISIT" Value="BASELINE"/>
      <ItemData ItemOID="IT.OE.EPOCH" Value="SCREENING"/>
      <ItemData ItemOID="IT.OE.OEDTC" Value="2014-05-11"/>
      <ItemData ItemOID="IT.OE.OEDY" Value="1"/>
    </ItemGroupData>
    <ItemGroupData ItemGroupOID="IG.OE" data:ItemGroupDataSeq="129">
      <ItemData ItemOID="IT.OE.STUDYID" Value="CDISCPILOT01"/>
      <ItemData ItemOID="IT.OE.DOMAIN" Value="OE"/>
      <ItemData ItemOID="IT.OE.USUBJID" Value="CDISC008"/>
      <ItemData ItemOID="IT.OE.FOCID" Value="OS"/>
      <ItemData ItemOID="IT.OE.OESEQ" Value="6"/>
      <ItemData ItemOID="IT.OE.OETESTCD" Value="INTP"/>
      <ItemData ItemOID="IT.OE.OETEST" Value="Interpretation"/>
      <ItemData ItemOID="IT.OE.OEORRES" Value="NORMAL"/>
      <ItemData ItemOID="IT.OE.OESTRESC" Value="NORMAL"/>
      <ItemData ItemOID="IT.OE.OELOC" Value="EYE"/>
      <ItemData ItemOID="IT.OE.OELAT" Value="LEFT"/>
      <ItemData ItemOID="IT.OE.OEMETHOD" Value="SLIT LAMP"/>
      <ItemData ItemOID="IT.OE.OELOBXFL" Value="Y"/>
      <ItemData ItemOID="IT.OE.VISITNUM" Value="3"/>
      <ItemData ItemOID="IT.OE.VISIT" Value="BASELINE"/>
      <ItemData ItemOID="IT.OE.EPOCH" Value="SCREENING"/>
      <ItemData ItemOID="IT.OE.OEDTC" Value="2014-05-11"/>
      <ItemData ItemOID="IT.OE.OEDY" Value="1"/>
    </ItemGroupData>
    <ItemGroupData ItemGroupOID="IG.OE" data:ItemGroupDataSeq="130">
      <ItemData ItemOID="IT.OE.STUDYID" Value="CDISCPILOT01"/>
      <ItemData ItemOID="IT.OE.DOMAIN" Value="OE"/>
      <ItemData ItemOID="IT.OE.USUBJID" Value="CDISC008"/>
      <ItemData ItemOID="IT.OE.FOCID" Value="OD"/>
      <ItemData ItemOID="IT.OE.OESEQ" Value="7"/>
      <ItemData ItemOID="IT.OE.OETESTCD" Value="INTP"/>
      <ItemData ItemOID="IT.OE.OETEST" Value="Interpretation"/>
      <ItemData ItemOID="IT.OE.OEORRES" Value="NORMAL"/>
      <ItemData ItemOID="IT.OE.OESTRESC" Value="NORMAL"/>
      <ItemData ItemOID="IT.OE.OELOC" Value="EYE"/>
      <ItemData ItemOID="IT.OE.OELAT" Value="RIGHT"/>
      <ItemData ItemOID="IT.OE.OEMETHOD" Value="SLIT LAMP"/>
      <ItemData ItemOID="IT.OE.VISITNUM" Value="4"/>
      <ItemData ItemOID="IT.OE.VISIT" Value="WEEK 2"/>
      <ItemData ItemOID="IT.OE.EPOCH" Value="TREATMENT"/>
      <ItemData ItemOID="IT.OE.OEDTC" Value="2014-05-25"/>
      <ItemData ItemOID="IT.OE.OEDY" Value="15"/>
    </ItemGroupData>
    <ItemGroupData ItemGroupOID="IG.OE" data:ItemGroupDataSeq="131">
      <ItemData ItemOID="IT.OE.STUDYID" Value="CDISCPILOT01"/>
      <ItemData ItemOID="IT.OE.DOMAIN" Value="OE"/>
      <ItemData ItemOID="IT.OE.USUBJID" Value="CDISC008"/>
      <ItemData ItemOID="IT.OE.FOCID" Value="OS"/>
      <ItemData ItemOID="IT.OE.OESEQ" Value="8"/>
      <ItemData ItemOID="IT.OE.OETESTCD" Value="INTP"/>
      <ItemData ItemOID="IT.OE.OETEST" Value="Interpretation"/>
      <ItemData ItemOID="IT.OE.OEORRES" Value="NORMAL"/>
      <ItemData ItemOID="IT.OE.OESTRESC" Value="NORMAL"/>
      <ItemData ItemOID="IT.OE.OELOC" Value="EYE"/>
      <ItemData ItemOID="IT.OE.OELAT" Value="LEFT"/>
      <ItemData ItemOID="IT.OE.OEMETHOD" Value="SLIT LAMP"/>
      <ItemData ItemOID="IT.OE.VISITNUM" Value="4"/>
      <ItemData ItemOID="IT.OE.VISIT" Value="WEEK 2"/>
      <ItemData ItemOID="IT.OE.EPOCH" Value="TREATMENT"/>
      <ItemData ItemOID="IT.OE.OEDTC" Value="2014-05-25"/>
      <ItemData ItemOID="IT.OE.OEDY" Value="15"/>
    </ItemGroupData>
    <ItemGroupData ItemGroupOID="IG.OE" data:ItemGroupDataSeq="132">
      <ItemData ItemOID="IT.OE.STUDYID" Value="CDISCPILOT01"/>
      <ItemData ItemOID="IT.OE.DOMAIN" Value="OE"/>
      <ItemData ItemOID="IT.OE.USUBJID" Value="CDISC008"/>
      <ItemData ItemOID="IT.OE.FOCID" Value="OD"/>
      <ItemData ItemOID="IT.OE.OESEQ" Value="9"/>
      <ItemData ItemOID="IT.OE.OETESTCD" Value="INTP"/>
      <ItemData ItemOID="IT.OE.OETEST" Value="Interpretation"/>
      <ItemData ItemOID="IT.OE.OEORRES" Value="NORMAL"/>
      <ItemData ItemOID="IT.OE.OESTRESC" Value="NORMAL"/>
      <ItemData ItemOID="IT.OE.OELOC" Value="EYE"/>
      <ItemData ItemOID="IT.OE.OELAT" Value="RIGHT"/>
      <ItemData ItemOID="IT.OE.OEMETHOD" Value="SLIT LAMP"/>
      <ItemData ItemOID="IT.OE.VISITNUM" Value="5"/>
      <ItemData ItemOID="IT.OE.VISIT" Value="WEEK 4"/>
      <ItemData ItemOID="IT.OE.EPOCH" Value="TREATMENT"/>
      <ItemData ItemOID="IT.OE.OEDTC" Value="2014-06-11"/>
      <ItemData ItemOID="IT.OE.OEDY" Value="32"/>
    </ItemGroupData>
    <ItemGroupData ItemGroupOID="IG.OE" data:ItemGroupDataSeq="133">
      <ItemData ItemOID="IT.OE.STUDYID" Value="CDISCPILOT01"/>
      <ItemData ItemOID="IT.OE.DOMAIN" Value="OE"/>
      <ItemData ItemOID="IT.OE.USUBJID" Value="CDISC008"/>
      <ItemData ItemOID="IT.OE.FOCID" Value="OS"/>
      <ItemData ItemOID="IT.OE.OESEQ" Value="10"/>
      <ItemData ItemOID="IT.OE.OETESTCD" Value="INTP"/>
      <ItemData ItemOID="IT.OE.OETEST" Value="Interpretation"/>
      <ItemData ItemOID="IT.OE.OEORRES" Value="NORMAL"/>
      <ItemData ItemOID="IT.OE.OESTRESC" Value="NORMAL"/>
      <ItemData ItemOID="IT.OE.OELOC" Value="EYE"/>
      <ItemData ItemOID="IT.OE.OELAT" Value="LEFT"/>
      <ItemData ItemOID="IT.OE.OEMETHOD" Value="SLIT LAMP"/>
      <ItemData ItemOID="IT.OE.VISITNUM" Value="5"/>
      <ItemData ItemOID="IT.OE.VISIT" Value="WEEK 4"/>
      <ItemData ItemOID="IT.OE.EPOCH" Value="TREATMENT"/>
      <ItemData ItemOID="IT.OE.OEDTC" Value="2014-06-11"/>
      <ItemData ItemOID="IT.OE.OEDY" Value="32"/>
    </ItemGroupData>
    <ItemGroupData ItemGroupOID="IG.OE" data:ItemGroupDataSeq="134">
      <ItemData ItemOID="IT.OE.STUDYID" Value="CDISCPILOT01"/>
      <ItemData ItemOID="IT.OE.DOMAIN" Value="OE"/>
      <ItemData ItemOID="IT.OE.USUBJID" Value="CDISC008"/>
      <ItemData ItemOID="IT.OE.FOCID" Value="OD"/>
      <ItemData ItemOID="IT.OE.OESEQ" Value="11"/>
      <ItemData ItemOID="IT.OE.OETESTCD" Value="INTP"/>
      <ItemData ItemOID="IT.OE.OETEST" Value="Interpretation"/>
      <ItemData ItemOID="IT.OE.OEORRES" Value="NORMAL"/>
      <ItemData ItemOID="IT.OE.OESTRESC" Value="NORMAL"/>
      <ItemData ItemOID="IT.OE.OELOC" Value="EYE"/>
      <ItemData ItemOID="IT.OE.OELAT" Value="RIGHT"/>
      <ItemData ItemOID="IT.OE.OEMETHOD" Value="SLIT LAMP"/>
      <ItemData ItemOID="IT.OE.VISITNUM" Value="8"/>
      <ItemData ItemOID="IT.OE.VISIT" Value="WEEK 8"/>
      <ItemData ItemOID="IT.OE.EPOCH" Value="TREATMENT"/>
      <ItemData ItemOID="IT.OE.OEDTC" Value="2014-07-09"/>
      <ItemData ItemOID="IT.OE.OEDY" Value="60"/>
    </ItemGroupData>
    <ItemGroupData ItemGroupOID="IG.OE" data:ItemGroupDataSeq="135">
      <ItemData ItemOID="IT.OE.STUDYID" Value="CDISCPILOT01"/>
      <ItemData ItemOID="IT.OE.DOMAIN" Value="OE"/>
      <ItemData ItemOID="IT.OE.USUBJID" Value="CDISC008"/>
      <ItemData ItemOID="IT.OE.FOCID" Value="OS"/>
      <ItemData ItemOID="IT.OE.OESEQ" Value="12"/>
      <ItemData ItemOID="IT.OE.OETESTCD" Value="INTP"/>
      <ItemData ItemOID="IT.OE.OETEST" Value="Interpretation"/>
      <ItemData ItemOID="IT.OE.OEORRES" Value="NORMAL"/>
      <ItemData ItemOID="IT.OE.OESTRESC" Value="NORMAL"/>
      <ItemData ItemOID="IT.OE.OELOC" Value="EYE"/>
      <ItemData ItemOID="IT.OE.OELAT" Value="LEFT"/>
      <ItemData ItemOID="IT.OE.OEMETHOD" Value="SLIT LAMP"/>
      <ItemData ItemOID="IT.OE.VISITNUM" Value="8"/>
      <ItemData ItemOID="IT.OE.VISIT" Value="WEEK 8"/>
      <ItemData ItemOID="IT.OE.EPOCH" Value="TREATMENT"/>
      <ItemData ItemOID="IT.OE.OEDTC" Value="2014-07-09"/>
      <ItemData ItemOID="IT.OE.OEDY" Value="60"/>
    </ItemGroupData>
    <ItemGroupData ItemGroupOID="IG.OE" data:ItemGroupDataSeq="136">
      <ItemData ItemOID="IT.OE.STUDYID" Value="CDISCPILOT01"/>
      <ItemData ItemOID="IT.OE.DOMAIN" Value="OE"/>
      <ItemData ItemOID="IT.OE.USUBJID" Value="CDISC008"/>
      <ItemData ItemOID="IT.OE.FOCID" Value="OD"/>
      <ItemData ItemOID="IT.OE.OESEQ" Value="13"/>
      <ItemData ItemOID="IT.OE.OETESTCD" Value="INTP"/>
      <ItemData ItemOID="IT.OE.OETEST" Value="Interpretation"/>
      <ItemData ItemOID="IT.OE.OEORRES" Value="NORMAL"/>
      <ItemData ItemOID="IT.OE.OESTRESC" Value="NORMAL"/>
      <ItemData ItemOID="IT.OE.OELOC" Value="EYE"/>
      <ItemData ItemOID="IT.OE.OELAT" Value="RIGHT"/>
      <ItemData ItemOID="IT.OE.OEMETHOD" Value="SLIT LAMP"/>
      <ItemData ItemOID="IT.OE.VISITNUM" Value="9"/>
      <ItemData ItemOID="IT.OE.VISIT" Value="WEEK 12"/>
      <ItemData ItemOID="IT.OE.EPOCH" Value="TREATMENT"/>
      <ItemData ItemOID="IT.OE.OEDTC" Value="2014-08-06"/>
      <ItemData ItemOID="IT.OE.OEDY" Value="88"/>
    </ItemGroupData>
    <ItemGroupData ItemGroupOID="IG.OE" data:ItemGroupDataSeq="137">
      <ItemData ItemOID="IT.OE.STUDYID" Value="CDISCPILOT01"/>
      <ItemData ItemOID="IT.OE.DOMAIN" Value="OE"/>
      <ItemData ItemOID="IT.OE.USUBJID" Value="CDISC008"/>
      <ItemData ItemOID="IT.OE.FOCID" Value="OS"/>
      <ItemData ItemOID="IT.OE.OESEQ" Value="14"/>
      <ItemData ItemOID="IT.OE.OETESTCD" Value="INTP"/>
      <ItemData ItemOID="IT.OE.OETEST" Value="Interpretation"/>
      <ItemData ItemOID="IT.OE.OEORRES" Value="NORMAL"/>
      <ItemData ItemOID="IT.OE.OESTRESC" Value="NORMAL"/>
      <ItemData ItemOID="IT.OE.OELOC" Value="EYE"/>
      <ItemData ItemOID="IT.OE.OELAT" Value="LEFT"/>
      <ItemData ItemOID="IT.OE.OEMETHOD" Value="SLIT LAMP"/>
      <ItemData ItemOID="IT.OE.VISITNUM" Value="9"/>
      <ItemData ItemOID="IT.OE.VISIT" Value="WEEK 12"/>
      <ItemData ItemOID="IT.OE.EPOCH" Value="TREATMENT"/>
      <ItemData ItemOID="IT.OE.OEDTC" Value="2014-08-06"/>
      <ItemData ItemOID="IT.OE.OEDY" Value="88"/>
    </ItemGroupData>
    <ItemGroupData ItemGroupOID="IG.OE" data:ItemGroupDataSeq="138">
      <ItemData ItemOID="IT.OE.STUDYID" Value="CDISCPILOT01"/>
      <ItemData ItemOID="IT.OE.DOMAIN" Value="OE"/>
      <ItemData ItemOID="IT.OE.USUBJID" Value="CDISC008"/>
      <ItemData ItemOID="IT.OE.FOCID" Value="OD"/>
      <ItemData ItemOID="IT.OE.OESEQ" Value="15"/>
      <ItemData ItemOID="IT.OE.OETESTCD" Value="INTP"/>
      <ItemData ItemOID="IT.OE.OETEST" Value="Interpretation"/>
      <ItemData ItemOID="IT.OE.OEORRES" Value="NORMAL"/>
      <ItemData ItemOID="IT.OE.OESTRESC" Value="NORMAL"/>
      <ItemData ItemOID="IT.OE.OELOC" Value="EYE"/>
      <ItemData ItemOID="IT.OE.OELAT" Value="RIGHT"/>
      <ItemData ItemOID="IT.OE.OEMETHOD" Value="SLIT LAMP"/>
      <ItemData ItemOID="IT.OE.VISITNUM" Value="10"/>
      <ItemData ItemOID="IT.OE.VISIT" Value="WEEK 16"/>
      <ItemData ItemOID="IT.OE.EPOCH" Value="TREATMENT"/>
      <ItemData ItemOID="IT.OE.OEDTC" Value="2014-09-03"/>
      <ItemData ItemOID="IT.OE.OEDY" Value="116"/>
    </ItemGroupData>
    <ItemGroupData ItemGroupOID="IG.OE" data:ItemGroupDataSeq="139">
      <ItemData ItemOID="IT.OE.STUDYID" Value="CDISCPILOT01"/>
      <ItemData ItemOID="IT.OE.DOMAIN" Value="OE"/>
      <ItemData ItemOID="IT.OE.USUBJID" Value="CDISC008"/>
      <ItemData ItemOID="IT.OE.FOCID" Value="OS"/>
      <ItemData ItemOID="IT.OE.OESEQ" Value="16"/>
      <ItemData ItemOID="IT.OE.OETESTCD" Value="INTP"/>
      <ItemData ItemOID="IT.OE.OETEST" Value="Interpretation"/>
      <ItemData ItemOID="IT.OE.OEORRES" Value="NORMAL"/>
      <ItemData ItemOID="IT.OE.OESTRESC" Value="NORMAL"/>
      <ItemData ItemOID="IT.OE.OELOC" Value="EYE"/>
      <ItemData ItemOID="IT.OE.OELAT" Value="LEFT"/>
      <ItemData ItemOID="IT.OE.OEMETHOD" Value="SLIT LAMP"/>
      <ItemData ItemOID="IT.OE.VISITNUM" Value="10"/>
      <ItemData ItemOID="IT.OE.VISIT" Value="WEEK 16"/>
      <ItemData ItemOID="IT.OE.EPOCH" Value="TREATMENT"/>
      <ItemData ItemOID="IT.OE.OEDTC" Value="2014-09-03"/>
      <ItemData ItemOID="IT.OE.OEDY" Value="116"/>
    </ItemGroupData>
    <ItemGroupData ItemGroupOID="IG.OE" data:ItemGroupDataSeq="140">
      <ItemData ItemOID="IT.OE.STUDYID" Value="CDISCPILOT01"/>
      <ItemData ItemOID="IT.OE.DOMAIN" Value="OE"/>
      <ItemData ItemOID="IT.OE.USUBJID" Value="CDISC008"/>
      <ItemData ItemOID="IT.OE.FOCID" Value="OD"/>
      <ItemData ItemOID="IT.OE.OESEQ" Value="17"/>
      <ItemData ItemOID="IT.OE.OETESTCD" Value="INTP"/>
      <ItemData ItemOID="IT.OE.OETEST" Value="Interpretation"/>
      <ItemData ItemOID="IT.OE.OEORRES" Value="NORMAL"/>
      <ItemData ItemOID="IT.OE.OESTRESC" Value="NORMAL"/>
      <ItemData ItemOID="IT.OE.OELOC" Value="EYE"/>
      <ItemData ItemOID="IT.OE.OELAT" Value="RIGHT"/>
      <ItemData ItemOID="IT.OE.OEMETHOD" Value="SLIT LAMP"/>
      <ItemData ItemOID="IT.OE.VISITNUM" Value="11"/>
      <ItemData ItemOID="IT.OE.VISIT" Value="WEEK 20"/>
      <ItemData ItemOID="IT.OE.EPOCH" Value="TREATMENT"/>
      <ItemData ItemOID="IT.OE.OEDTC" Value="2014-10-01"/>
      <ItemData ItemOID="IT.OE.OEDY" Value="144"/>
    </ItemGroupData>
    <ItemGroupData ItemGroupOID="IG.OE" data:ItemGroupDataSeq="141">
      <ItemData ItemOID="IT.OE.STUDYID" Value="CDISCPILOT01"/>
      <ItemData ItemOID="IT.OE.DOMAIN" Value="OE"/>
      <ItemData ItemOID="IT.OE.USUBJID" Value="CDISC008"/>
      <ItemData ItemOID="IT.OE.FOCID" Value="OS"/>
      <ItemData ItemOID="IT.OE.OESEQ" Value="18"/>
      <ItemData ItemOID="IT.OE.OETESTCD" Value="INTP"/>
      <ItemData ItemOID="IT.OE.OETEST" Value="Interpretation"/>
      <ItemData ItemOID="IT.OE.OEORRES" Value="NORMAL"/>
      <ItemData ItemOID="IT.OE.OESTRESC" Value="NORMAL"/>
      <ItemData ItemOID="IT.OE.OELOC" Value="EYE"/>
      <ItemData ItemOID="IT.OE.OELAT" Value="LEFT"/>
      <ItemData ItemOID="IT.OE.OEMETHOD" Value="SLIT LAMP"/>
      <ItemData ItemOID="IT.OE.VISITNUM" Value="11"/>
      <ItemData ItemOID="IT.OE.VISIT" Value="WEEK 20"/>
      <ItemData ItemOID="IT.OE.EPOCH" Value="TREATMENT"/>
      <ItemData ItemOID="IT.OE.OEDTC" Value="2014-10-01"/>
      <ItemData ItemOID="IT.OE.OEDY" Value="144"/>
    </ItemGroupData>
    <ItemGroupData ItemGroupOID="IG.OE" data:ItemGroupDataSeq="142">
      <ItemData ItemOID="IT.OE.STUDYID" Value="CDISCPILOT01"/>
      <ItemData ItemOID="IT.OE.DOMAIN" Value="OE"/>
      <ItemData ItemOID="IT.OE.USUBJID" Value="CDISC009"/>
      <ItemData ItemOID="IT.OE.FOCID" Value="OD"/>
      <ItemData ItemOID="IT.OE.OESEQ" Value="1"/>
      <ItemData ItemOID="IT.OE.OETESTCD" Value="INTP"/>
      <ItemData ItemOID="IT.OE.OETEST" Value="Interpretation"/>
      <ItemData ItemOID="IT.OE.OEORRES" Value="NORMAL"/>
      <ItemData ItemOID="IT.OE.OESTRESC" Value="NORMAL"/>
      <ItemData ItemOID="IT.OE.OELOC" Value="EYE"/>
      <ItemData ItemOID="IT.OE.OELAT" Value="RIGHT"/>
      <ItemData ItemOID="IT.OE.OEMETHOD" Value="SLIT LAMP"/>
      <ItemData ItemOID="IT.OE.VISITNUM" Value="1"/>
      <ItemData ItemOID="IT.OE.VISIT" Value="SCREENING 1"/>
      <ItemData ItemOID="IT.OE.EPOCH" Value="SCREENING"/>
      <ItemData ItemOID="IT.OE.OEDTC" Value="2012-10-06"/>
      <ItemData ItemOID="IT.OE.OEDY" Value="-16"/>
    </ItemGroupData>
    <ItemGroupData ItemGroupOID="IG.OE" data:ItemGroupDataSeq="143">
      <ItemData ItemOID="IT.OE.STUDYID" Value="CDISCPILOT01"/>
      <ItemData ItemOID="IT.OE.DOMAIN" Value="OE"/>
      <ItemData ItemOID="IT.OE.USUBJID" Value="CDISC009"/>
      <ItemData ItemOID="IT.OE.FOCID" Value="OS"/>
      <ItemData ItemOID="IT.OE.OESEQ" Value="2"/>
      <ItemData ItemOID="IT.OE.OETESTCD" Value="INTP"/>
      <ItemData ItemOID="IT.OE.OETEST" Value="Interpretation"/>
      <ItemData ItemOID="IT.OE.OEORRES" Value="NORMAL"/>
      <ItemData ItemOID="IT.OE.OESTRESC" Value="NORMAL"/>
      <ItemData ItemOID="IT.OE.OELOC" Value="EYE"/>
      <ItemData ItemOID="IT.OE.OELAT" Value="LEFT"/>
      <ItemData ItemOID="IT.OE.OEMETHOD" Value="SLIT LAMP"/>
      <ItemData ItemOID="IT.OE.VISITNUM" Value="1"/>
      <ItemData ItemOID="IT.OE.VISIT" Value="SCREENING 1"/>
      <ItemData ItemOID="IT.OE.EPOCH" Value="SCREENING"/>
      <ItemData ItemOID="IT.OE.OEDTC" Value="2012-10-06"/>
      <ItemData ItemOID="IT.OE.OEDY" Value="-16"/>
    </ItemGroupData>
    <ItemGroupData ItemGroupOID="IG.OE" data:ItemGroupDataSeq="144">
      <ItemData ItemOID="IT.OE.STUDYID" Value="CDISCPILOT01"/>
      <ItemData ItemOID="IT.OE.DOMAIN" Value="OE"/>
      <ItemData ItemOID="IT.OE.USUBJID" Value="CDISC009"/>
      <ItemData ItemOID="IT.OE.FOCID" Value="OD"/>
      <ItemData ItemOID="IT.OE.OESEQ" Value="3"/>
      <ItemData ItemOID="IT.OE.OETESTCD" Value="INTP"/>
      <ItemData ItemOID="IT.OE.OETEST" Value="Interpretation"/>
      <ItemData ItemOID="IT.OE.OEORRES" Value="NORMAL"/>
      <ItemData ItemOID="IT.OE.OESTRESC" Value="NORMAL"/>
      <ItemData ItemOID="IT.OE.OELOC" Value="EYE"/>
      <ItemData ItemOID="IT.OE.OELAT" Value="RIGHT"/>
      <ItemData ItemOID="IT.OE.OEMETHOD" Value="SLIT LAMP"/>
      <ItemData ItemOID="IT.OE.VISITNUM" Value="2"/>
      <ItemData ItemOID="IT.OE.VISIT" Value="SCREENING 2"/>
      <ItemData ItemOID="IT.OE.EPOCH" Value="SCREENING"/>
      <ItemData ItemOID="IT.OE.OEDTC" Value="2012-10-20"/>
      <ItemData ItemOID="IT.OE.OEDY" Value="-2"/>
    </ItemGroupData>
    <ItemGroupData ItemGroupOID="IG.OE" data:ItemGroupDataSeq="145">
      <ItemData ItemOID="IT.OE.STUDYID" Value="CDISCPILOT01"/>
      <ItemData ItemOID="IT.OE.DOMAIN" Value="OE"/>
      <ItemData ItemOID="IT.OE.USUBJID" Value="CDISC009"/>
      <ItemData ItemOID="IT.OE.FOCID" Value="OS"/>
      <ItemData ItemOID="IT.OE.OESEQ" Value="4"/>
      <ItemData ItemOID="IT.OE.OETESTCD" Value="INTP"/>
      <ItemData ItemOID="IT.OE.OETEST" Value="Interpretation"/>
      <ItemData ItemOID="IT.OE.OEORRES" Value="NORMAL"/>
      <ItemData ItemOID="IT.OE.OESTRESC" Value="NORMAL"/>
      <ItemData ItemOID="IT.OE.OELOC" Value="EYE"/>
      <ItemData ItemOID="IT.OE.OELAT" Value="LEFT"/>
      <ItemData ItemOID="IT.OE.OEMETHOD" Value="SLIT LAMP"/>
      <ItemData ItemOID="IT.OE.VISITNUM" Value="2"/>
      <ItemData ItemOID="IT.OE.VISIT" Value="SCREENING 2"/>
      <ItemData ItemOID="IT.OE.EPOCH" Value="SCREENING"/>
      <ItemData ItemOID="IT.OE.OEDTC" Value="2012-10-20"/>
      <ItemData ItemOID="IT.OE.OEDY" Value="-2"/>
    </ItemGroupData>
    <ItemGroupData ItemGroupOID="IG.OE" data:ItemGroupDataSeq="146">
      <ItemData ItemOID="IT.OE.STUDYID" Value="CDISCPILOT01"/>
      <ItemData ItemOID="IT.OE.DOMAIN" Value="OE"/>
      <ItemData ItemOID="IT.OE.USUBJID" Value="CDISC009"/>
      <ItemData ItemOID="IT.OE.FOCID" Value="OD"/>
      <ItemData ItemOID="IT.OE.OESEQ" Value="5"/>
      <ItemData ItemOID="IT.OE.OETESTCD" Value="INTP"/>
      <ItemData ItemOID="IT.OE.OETEST" Value="Interpretation"/>
      <ItemData ItemOID="IT.OE.OEORRES" Value="NORMAL"/>
      <ItemData ItemOID="IT.OE.OESTRESC" Value="NORMAL"/>
      <ItemData ItemOID="IT.OE.OELOC" Value="EYE"/>
      <ItemData ItemOID="IT.OE.OELAT" Value="RIGHT"/>
      <ItemData ItemOID="IT.OE.OEMETHOD" Value="SLIT LAMP"/>
      <ItemData ItemOID="IT.OE.OELOBXFL" Value="Y"/>
      <ItemData ItemOID="IT.OE.VISITNUM" Value="3"/>
      <ItemData ItemOID="IT.OE.VISIT" Value="BASELINE"/>
      <ItemData ItemOID="IT.OE.EPOCH" Value="SCREENING"/>
      <ItemData ItemOID="IT.OE.OEDTC" Value="2012-10-22"/>
      <ItemData ItemOID="IT.OE.OEDY" Value="1"/>
    </ItemGroupData>
    <ItemGroupData ItemGroupOID="IG.OE" data:ItemGroupDataSeq="147">
      <ItemData ItemOID="IT.OE.STUDYID" Value="CDISCPILOT01"/>
      <ItemData ItemOID="IT.OE.DOMAIN" Value="OE"/>
      <ItemData ItemOID="IT.OE.USUBJID" Value="CDISC009"/>
      <ItemData ItemOID="IT.OE.FOCID" Value="OS"/>
      <ItemData ItemOID="IT.OE.OESEQ" Value="6"/>
      <ItemData ItemOID="IT.OE.OETESTCD" Value="INTP"/>
      <ItemData ItemOID="IT.OE.OETEST" Value="Interpretation"/>
      <ItemData ItemOID="IT.OE.OEORRES" Value="NORMAL"/>
      <ItemData ItemOID="IT.OE.OESTRESC" Value="NORMAL"/>
      <ItemData ItemOID="IT.OE.OELOC" Value="EYE"/>
      <ItemData ItemOID="IT.OE.OELAT" Value="LEFT"/>
      <ItemData ItemOID="IT.OE.OEMETHOD" Value="SLIT LAMP"/>
      <ItemData ItemOID="IT.OE.OELOBXFL" Value="Y"/>
      <ItemData ItemOID="IT.OE.VISITNUM" Value="3"/>
      <ItemData ItemOID="IT.OE.VISIT" Value="BASELINE"/>
      <ItemData ItemOID="IT.OE.EPOCH" Value="SCREENING"/>
      <ItemData ItemOID="IT.OE.OEDTC" Value="2012-10-22"/>
      <ItemData ItemOID="IT.OE.OEDY" Value="1"/>
    </ItemGroupData>
    <ItemGroupData ItemGroupOID="IG.OE" data:ItemGroupDataSeq="148">
      <ItemData ItemOID="IT.OE.STUDYID" Value="CDISCPILOT01"/>
      <ItemData ItemOID="IT.OE.DOMAIN" Value="OE"/>
      <ItemData ItemOID="IT.OE.USUBJID" Value="CDISC009"/>
      <ItemData ItemOID="IT.OE.FOCID" Value="OD"/>
      <ItemData ItemOID="IT.OE.OESEQ" Value="7"/>
      <ItemData ItemOID="IT.OE.OETESTCD" Value="INTP"/>
      <ItemData ItemOID="IT.OE.OETEST" Value="Interpretation"/>
      <ItemData ItemOID="IT.OE.OEORRES" Value="NORMAL"/>
      <ItemData ItemOID="IT.OE.OESTRESC" Value="NORMAL"/>
      <ItemData ItemOID="IT.OE.OELOC" Value="EYE"/>
      <ItemData ItemOID="IT.OE.OELAT" Value="RIGHT"/>
      <ItemData ItemOID="IT.OE.OEMETHOD" Value="SLIT LAMP"/>
      <ItemData ItemOID="IT.OE.VISITNUM" Value="4"/>
      <ItemData ItemOID="IT.OE.VISIT" Value="WEEK 2"/>
      <ItemData ItemOID="IT.OE.EPOCH" Value="TREATMENT"/>
      <ItemData ItemOID="IT.OE.OEDTC" Value="2012-11-05"/>
      <ItemData ItemOID="IT.OE.OEDY" Value="15"/>
    </ItemGroupData>
    <ItemGroupData ItemGroupOID="IG.OE" data:ItemGroupDataSeq="149">
      <ItemData ItemOID="IT.OE.STUDYID" Value="CDISCPILOT01"/>
      <ItemData ItemOID="IT.OE.DOMAIN" Value="OE"/>
      <ItemData ItemOID="IT.OE.USUBJID" Value="CDISC009"/>
      <ItemData ItemOID="IT.OE.FOCID" Value="OS"/>
      <ItemData ItemOID="IT.OE.OESEQ" Value="8"/>
      <ItemData ItemOID="IT.OE.OETESTCD" Value="INTP"/>
      <ItemData ItemOID="IT.OE.OETEST" Value="Interpretation"/>
      <ItemData ItemOID="IT.OE.OEORRES" Value="NORMAL"/>
      <ItemData ItemOID="IT.OE.OESTRESC" Value="NORMAL"/>
      <ItemData ItemOID="IT.OE.OELOC" Value="EYE"/>
      <ItemData ItemOID="IT.OE.OELAT" Value="LEFT"/>
      <ItemData ItemOID="IT.OE.OEMETHOD" Value="SLIT LAMP"/>
      <ItemData ItemOID="IT.OE.VISITNUM" Value="4"/>
      <ItemData ItemOID="IT.OE.VISIT" Value="WEEK 2"/>
      <ItemData ItemOID="IT.OE.EPOCH" Value="TREATMENT"/>
      <ItemData ItemOID="IT.OE.OEDTC" Value="2012-11-05"/>
      <ItemData ItemOID="IT.OE.OEDY" Value="15"/>
    </ItemGroupData>
    <ItemGroupData ItemGroupOID="IG.OE" data:ItemGroupDataSeq="150">
      <ItemData ItemOID="IT.OE.STUDYID" Value="CDISCPILOT01"/>
      <ItemData ItemOID="IT.OE.DOMAIN" Value="OE"/>
      <ItemData ItemOID="IT.OE.USUBJID" Value="CDISC009"/>
      <ItemData ItemOID="IT.OE.FOCID" Value="OD"/>
      <ItemData ItemOID="IT.OE.OESEQ" Value="9"/>
      <ItemData ItemOID="IT.OE.OETESTCD" Value="INTP"/>
      <ItemData ItemOID="IT.OE.OETEST" Value="Interpretation"/>
      <ItemData ItemOID="IT.OE.OEORRES" Value="NORMAL"/>
      <ItemData ItemOID="IT.OE.OESTRESC" Value="NORMAL"/>
      <ItemData ItemOID="IT.OE.OELOC" Value="EYE"/>
      <ItemData ItemOID="IT.OE.OELAT" Value="RIGHT"/>
      <ItemData ItemOID="IT.OE.OEMETHOD" Value="SLIT LAMP"/>
      <ItemData ItemOID="IT.OE.VISITNUM" Value="5"/>
      <ItemData ItemOID="IT.OE.VISIT" Value="WEEK 4"/>
      <ItemData ItemOID="IT.OE.EPOCH" Value="TREATMENT"/>
      <ItemData ItemOID="IT.OE.OEDTC" Value="2012-11-20"/>
      <ItemData ItemOID="IT.OE.OEDY" Value="30"/>
    </ItemGroupData>
    <ItemGroupData ItemGroupOID="IG.OE" data:ItemGroupDataSeq="151">
      <ItemData ItemOID="IT.OE.STUDYID" Value="CDISCPILOT01"/>
      <ItemData ItemOID="IT.OE.DOMAIN" Value="OE"/>
      <ItemData ItemOID="IT.OE.USUBJID" Value="CDISC009"/>
      <ItemData ItemOID="IT.OE.FOCID" Value="OS"/>
      <ItemData ItemOID="IT.OE.OESEQ" Value="10"/>
      <ItemData ItemOID="IT.OE.OETESTCD" Value="INTP"/>
      <ItemData ItemOID="IT.OE.OETEST" Value="Interpretation"/>
      <ItemData ItemOID="IT.OE.OEORRES" Value="NORMAL"/>
      <ItemData ItemOID="IT.OE.OESTRESC" Value="NORMAL"/>
      <ItemData ItemOID="IT.OE.OELOC" Value="EYE"/>
      <ItemData ItemOID="IT.OE.OELAT" Value="LEFT"/>
      <ItemData ItemOID="IT.OE.OEMETHOD" Value="SLIT LAMP"/>
      <ItemData ItemOID="IT.OE.VISITNUM" Value="5"/>
      <ItemData ItemOID="IT.OE.VISIT" Value="WEEK 4"/>
      <ItemData ItemOID="IT.OE.EPOCH" Value="TREATMENT"/>
      <ItemData ItemOID="IT.OE.OEDTC" Value="2012-11-20"/>
      <ItemData ItemOID="IT.OE.OEDY" Value="30"/>
    </ItemGroupData>
    <ItemGroupData ItemGroupOID="IG.OE" data:ItemGroupDataSeq="152">
      <ItemData ItemOID="IT.OE.STUDYID" Value="CDISCPILOT01"/>
      <ItemData ItemOID="IT.OE.DOMAIN" Value="OE"/>
      <ItemData ItemOID="IT.OE.USUBJID" Value="CDISC009"/>
      <ItemData ItemOID="IT.OE.FOCID" Value="OD"/>
      <ItemData ItemOID="IT.OE.OESEQ" Value="11"/>
      <ItemData ItemOID="IT.OE.OETESTCD" Value="INTP"/>
      <ItemData ItemOID="IT.OE.OETEST" Value="Interpretation"/>
      <ItemData ItemOID="IT.OE.OEORRES" Value="NORMAL"/>
      <ItemData ItemOID="IT.OE.OESTRESC" Value="NORMAL"/>
      <ItemData ItemOID="IT.OE.OELOC" Value="EYE"/>
      <ItemData ItemOID="IT.OE.OELAT" Value="RIGHT"/>
      <ItemData ItemOID="IT.OE.OEMETHOD" Value="SLIT LAMP"/>
      <ItemData ItemOID="IT.OE.VISITNUM" Value="8"/>
      <ItemData ItemOID="IT.OE.VISIT" Value="WEEK 8"/>
      <ItemData ItemOID="IT.OE.EPOCH" Value="TREATMENT"/>
      <ItemData ItemOID="IT.OE.OEDTC" Value="2012-12-22"/>
      <ItemData ItemOID="IT.OE.OEDY" Value="62"/>
    </ItemGroupData>
    <ItemGroupData ItemGroupOID="IG.OE" data:ItemGroupDataSeq="153">
      <ItemData ItemOID="IT.OE.STUDYID" Value="CDISCPILOT01"/>
      <ItemData ItemOID="IT.OE.DOMAIN" Value="OE"/>
      <ItemData ItemOID="IT.OE.USUBJID" Value="CDISC009"/>
      <ItemData ItemOID="IT.OE.FOCID" Value="OS"/>
      <ItemData ItemOID="IT.OE.OESEQ" Value="12"/>
      <ItemData ItemOID="IT.OE.OETESTCD" Value="INTP"/>
      <ItemData ItemOID="IT.OE.OETEST" Value="Interpretation"/>
      <ItemData ItemOID="IT.OE.OEORRES" Value="NORMAL"/>
      <ItemData ItemOID="IT.OE.OESTRESC" Value="NORMAL"/>
      <ItemData ItemOID="IT.OE.OELOC" Value="EYE"/>
      <ItemData ItemOID="IT.OE.OELAT" Value="LEFT"/>
      <ItemData ItemOID="IT.OE.OEMETHOD" Value="SLIT LAMP"/>
      <ItemData ItemOID="IT.OE.VISITNUM" Value="8"/>
      <ItemData ItemOID="IT.OE.VISIT" Value="WEEK 8"/>
      <ItemData ItemOID="IT.OE.EPOCH" Value="TREATMENT"/>
      <ItemData ItemOID="IT.OE.OEDTC" Value="2012-12-22"/>
      <ItemData ItemOID="IT.OE.OEDY" Value="62"/>
    </ItemGroupData>
    <ItemGroupData ItemGroupOID="IG.OE" data:ItemGroupDataSeq="154">
      <ItemData ItemOID="IT.OE.STUDYID" Value="CDISCPILOT01"/>
      <ItemData ItemOID="IT.OE.DOMAIN" Value="OE"/>
      <ItemData ItemOID="IT.OE.USUBJID" Value="CDISC009"/>
      <ItemData ItemOID="IT.OE.FOCID" Value="OD"/>
      <ItemData ItemOID="IT.OE.OESEQ" Value="13"/>
      <ItemData ItemOID="IT.OE.OETESTCD" Value="INTP"/>
      <ItemData ItemOID="IT.OE.OETEST" Value="Interpretation"/>
      <ItemData ItemOID="IT.OE.OEORRES" Value="NORMAL"/>
      <ItemData ItemOID="IT.OE.OESTRESC" Value="NORMAL"/>
      <ItemData ItemOID="IT.OE.OELOC" Value="EYE"/>
      <ItemData ItemOID="IT.OE.OELAT" Value="RIGHT"/>
      <ItemData ItemOID="IT.OE.OEMETHOD" Value="SLIT LAMP"/>
      <ItemData ItemOID="IT.OE.VISITNUM" Value="9"/>
      <ItemData ItemOID="IT.OE.VISIT" Value="WEEK 12"/>
      <ItemData ItemOID="IT.OE.EPOCH" Value="TREATMENT"/>
      <ItemData ItemOID="IT.OE.OEDTC" Value="2013-01-19"/>
      <ItemData ItemOID="IT.OE.OEDY" Value="90"/>
    </ItemGroupData>
    <ItemGroupData ItemGroupOID="IG.OE" data:ItemGroupDataSeq="155">
      <ItemData ItemOID="IT.OE.STUDYID" Value="CDISCPILOT01"/>
      <ItemData ItemOID="IT.OE.DOMAIN" Value="OE"/>
      <ItemData ItemOID="IT.OE.USUBJID" Value="CDISC009"/>
      <ItemData ItemOID="IT.OE.FOCID" Value="OS"/>
      <ItemData ItemOID="IT.OE.OESEQ" Value="14"/>
      <ItemData ItemOID="IT.OE.OETESTCD" Value="INTP"/>
      <ItemData ItemOID="IT.OE.OETEST" Value="Interpretation"/>
      <ItemData ItemOID="IT.OE.OEORRES" Value="NORMAL"/>
      <ItemData ItemOID="IT.OE.OESTRESC" Value="NORMAL"/>
      <ItemData ItemOID="IT.OE.OELOC" Value="EYE"/>
      <ItemData ItemOID="IT.OE.OELAT" Value="LEFT"/>
      <ItemData ItemOID="IT.OE.OEMETHOD" Value="SLIT LAMP"/>
      <ItemData ItemOID="IT.OE.VISITNUM" Value="9"/>
      <ItemData ItemOID="IT.OE.VISIT" Value="WEEK 12"/>
      <ItemData ItemOID="IT.OE.EPOCH" Value="TREATMENT"/>
      <ItemData ItemOID="IT.OE.OEDTC" Value="2013-01-19"/>
      <ItemData ItemOID="IT.OE.OEDY" Value="90"/>
    </ItemGroupData>
    <ItemGroupData ItemGroupOID="IG.OE" data:ItemGroupDataSeq="156">
      <ItemData ItemOID="IT.OE.STUDYID" Value="CDISCPILOT01"/>
      <ItemData ItemOID="IT.OE.DOMAIN" Value="OE"/>
      <ItemData ItemOID="IT.OE.USUBJID" Value="CDISC009"/>
      <ItemData ItemOID="IT.OE.FOCID" Value="OD"/>
      <ItemData ItemOID="IT.OE.OESEQ" Value="15"/>
      <ItemData ItemOID="IT.OE.OETESTCD" Value="INTP"/>
      <ItemData ItemOID="IT.OE.OETEST" Value="Interpretation"/>
      <ItemData ItemOID="IT.OE.OEORRES" Value="NORMAL"/>
      <ItemData ItemOID="IT.OE.OESTRESC" Value="NORMAL"/>
      <ItemData ItemOID="IT.OE.OELOC" Value="EYE"/>
      <ItemData ItemOID="IT.OE.OELAT" Value="RIGHT"/>
      <ItemData ItemOID="IT.OE.OEMETHOD" Value="SLIT LAMP"/>
      <ItemData ItemOID="IT.OE.VISITNUM" Value="10"/>
      <ItemData ItemOID="IT.OE.VISIT" Value="WEEK 16"/>
      <ItemData ItemOID="IT.OE.EPOCH" Value="TREATMENT"/>
      <ItemData ItemOID="IT.OE.OEDTC" Value="2013-02-16"/>
      <ItemData ItemOID="IT.OE.OEDY" Value="118"/>
    </ItemGroupData>
    <ItemGroupData ItemGroupOID="IG.OE" data:ItemGroupDataSeq="157">
      <ItemData ItemOID="IT.OE.STUDYID" Value="CDISCPILOT01"/>
      <ItemData ItemOID="IT.OE.DOMAIN" Value="OE"/>
      <ItemData ItemOID="IT.OE.USUBJID" Value="CDISC009"/>
      <ItemData ItemOID="IT.OE.FOCID" Value="OS"/>
      <ItemData ItemOID="IT.OE.OESEQ" Value="16"/>
      <ItemData ItemOID="IT.OE.OETESTCD" Value="INTP"/>
      <ItemData ItemOID="IT.OE.OETEST" Value="Interpretation"/>
      <ItemData ItemOID="IT.OE.OEORRES" Value="NORMAL"/>
      <ItemData ItemOID="IT.OE.OESTRESC" Value="NORMAL"/>
      <ItemData ItemOID="IT.OE.OELOC" Value="EYE"/>
      <ItemData ItemOID="IT.OE.OELAT" Value="LEFT"/>
      <ItemData ItemOID="IT.OE.OEMETHOD" Value="SLIT LAMP"/>
      <ItemData ItemOID="IT.OE.VISITNUM" Value="10"/>
      <ItemData ItemOID="IT.OE.VISIT" Value="WEEK 16"/>
      <ItemData ItemOID="IT.OE.EPOCH" Value="TREATMENT"/>
      <ItemData ItemOID="IT.OE.OEDTC" Value="2013-02-16"/>
      <ItemData ItemOID="IT.OE.OEDY" Value="118"/>
    </ItemGroupData>
    <ItemGroupData ItemGroupOID="IG.OE" data:ItemGroupDataSeq="158">
      <ItemData ItemOID="IT.OE.STUDYID" Value="CDISCPILOT01"/>
      <ItemData ItemOID="IT.OE.DOMAIN" Value="OE"/>
      <ItemData ItemOID="IT.OE.USUBJID" Value="CDISC009"/>
      <ItemData ItemOID="IT.OE.FOCID" Value="OD"/>
      <ItemData ItemOID="IT.OE.OESEQ" Value="17"/>
      <ItemData ItemOID="IT.OE.OETESTCD" Value="INTP"/>
      <ItemData ItemOID="IT.OE.OETEST" Value="Interpretation"/>
      <ItemData ItemOID="IT.OE.OEORRES" Value="NORMAL"/>
      <ItemData ItemOID="IT.OE.OESTRESC" Value="NORMAL"/>
      <ItemData ItemOID="IT.OE.OELOC" Value="EYE"/>
      <ItemData ItemOID="IT.OE.OELAT" Value="RIGHT"/>
      <ItemData ItemOID="IT.OE.OEMETHOD" Value="SLIT LAMP"/>
      <ItemData ItemOID="IT.OE.VISITNUM" Value="11"/>
      <ItemData ItemOID="IT.OE.VISIT" Value="WEEK 20"/>
      <ItemData ItemOID="IT.OE.EPOCH" Value="TREATMENT"/>
      <ItemData ItemOID="IT.OE.OEDTC" Value="2013-03-16"/>
      <ItemData ItemOID="IT.OE.OEDY" Value="146"/>
    </ItemGroupData>
    <ItemGroupData ItemGroupOID="IG.OE" data:ItemGroupDataSeq="159">
      <ItemData ItemOID="IT.OE.STUDYID" Value="CDISCPILOT01"/>
      <ItemData ItemOID="IT.OE.DOMAIN" Value="OE"/>
      <ItemData ItemOID="IT.OE.USUBJID" Value="CDISC009"/>
      <ItemData ItemOID="IT.OE.FOCID" Value="OS"/>
      <ItemData ItemOID="IT.OE.OESEQ" Value="18"/>
      <ItemData ItemOID="IT.OE.OETESTCD" Value="INTP"/>
      <ItemData ItemOID="IT.OE.OETEST" Value="Interpretation"/>
      <ItemData ItemOID="IT.OE.OEORRES" Value="NORMAL"/>
      <ItemData ItemOID="IT.OE.OESTRESC" Value="NORMAL"/>
      <ItemData ItemOID="IT.OE.OELOC" Value="EYE"/>
      <ItemData ItemOID="IT.OE.OELAT" Value="LEFT"/>
      <ItemData ItemOID="IT.OE.OEMETHOD" Value="SLIT LAMP"/>
      <ItemData ItemOID="IT.OE.VISITNUM" Value="11"/>
      <ItemData ItemOID="IT.OE.VISIT" Value="WEEK 20"/>
      <ItemData ItemOID="IT.OE.EPOCH" Value="TREATMENT"/>
      <ItemData ItemOID="IT.OE.OEDTC" Value="2013-03-16"/>
      <ItemData ItemOID="IT.OE.OEDY" Value="146"/>
    </ItemGroupData>
    <ItemGroupData ItemGroupOID="IG.OE" data:ItemGroupDataSeq="160">
      <ItemData ItemOID="IT.OE.STUDYID" Value="CDISCPILOT01"/>
      <ItemData ItemOID="IT.OE.DOMAIN" Value="OE"/>
      <ItemData ItemOID="IT.OE.USUBJID" Value="CDISC009"/>
      <ItemData ItemOID="IT.OE.FOCID" Value="OD"/>
      <ItemData ItemOID="IT.OE.OESEQ" Value="19"/>
      <ItemData ItemOID="IT.OE.OETESTCD" Value="INTP"/>
      <ItemData ItemOID="IT.OE.OETEST" Value="Interpretation"/>
      <ItemData ItemOID="IT.OE.OEORRES" Value="NORMAL"/>
      <ItemData ItemOID="IT.OE.OESTRESC" Value="NORMAL"/>
      <ItemData ItemOID="IT.OE.OELOC" Value="EYE"/>
      <ItemData ItemOID="IT.OE.OELAT" Value="RIGHT"/>
      <ItemData ItemOID="IT.OE.OEMETHOD" Value="SLIT LAMP"/>
      <ItemData ItemOID="IT.OE.VISITNUM" Value="12"/>
      <ItemData ItemOID="IT.OE.VISIT" Value="WEEK 24"/>
      <ItemData ItemOID="IT.OE.EPOCH" Value="TREATMENT"/>
      <ItemData ItemOID="IT.OE.OEDTC" Value="2013-04-10"/>
      <ItemData ItemOID="IT.OE.OEDY" Value="171"/>
    </ItemGroupData>
    <ItemGroupData ItemGroupOID="IG.OE" data:ItemGroupDataSeq="161">
      <ItemData ItemOID="IT.OE.STUDYID" Value="CDISCPILOT01"/>
      <ItemData ItemOID="IT.OE.DOMAIN" Value="OE"/>
      <ItemData ItemOID="IT.OE.USUBJID" Value="CDISC009"/>
      <ItemData ItemOID="IT.OE.FOCID" Value="OS"/>
      <ItemData ItemOID="IT.OE.OESEQ" Value="20"/>
      <ItemData ItemOID="IT.OE.OETESTCD" Value="INTP"/>
      <ItemData ItemOID="IT.OE.OETEST" Value="Interpretation"/>
      <ItemData ItemOID="IT.OE.OEORRES" Value="NORMAL"/>
      <ItemData ItemOID="IT.OE.OESTRESC" Value="NORMAL"/>
      <ItemData ItemOID="IT.OE.OELOC" Value="EYE"/>
      <ItemData ItemOID="IT.OE.OELAT" Value="LEFT"/>
      <ItemData ItemOID="IT.OE.OEMETHOD" Value="SLIT LAMP"/>
      <ItemData ItemOID="IT.OE.VISITNUM" Value="12"/>
      <ItemData ItemOID="IT.OE.VISIT" Value="WEEK 24"/>
      <ItemData ItemOID="IT.OE.EPOCH" Value="TREATMENT"/>
      <ItemData ItemOID="IT.OE.OEDTC" Value="2013-04-10"/>
      <ItemData ItemOID="IT.OE.OEDY" Value="171"/>
    </ItemGroupData>
    <ItemGroupData ItemGroupOID="IG.OE" data:ItemGroupDataSeq="162">
      <ItemData ItemOID="IT.OE.STUDYID" Value="CDISCPILOT01"/>
      <ItemData ItemOID="IT.OE.DOMAIN" Value="OE"/>
      <ItemData ItemOID="IT.OE.USUBJID" Value="CDISC009"/>
      <ItemData ItemOID="IT.OE.FOCID" Value="OD"/>
      <ItemData ItemOID="IT.OE.OESEQ" Value="21"/>
      <ItemData ItemOID="IT.OE.OETESTCD" Value="INTP"/>
      <ItemData ItemOID="IT.OE.OETEST" Value="Interpretation"/>
      <ItemData ItemOID="IT.OE.OEORRES" Value="NORMAL"/>
      <ItemData ItemOID="IT.OE.OESTRESC" Value="NORMAL"/>
      <ItemData ItemOID="IT.OE.OELOC" Value="EYE"/>
      <ItemData ItemOID="IT.OE.OELAT" Value="RIGHT"/>
      <ItemData ItemOID="IT.OE.OEMETHOD" Value="SLIT LAMP"/>
      <ItemData ItemOID="IT.OE.VISITNUM" Value="13"/>
      <ItemData ItemOID="IT.OE.VISIT" Value="WEEK 26"/>
      <ItemData ItemOID="IT.OE.EPOCH" Value="TREATMENT"/>
      <ItemData ItemOID="IT.OE.OEDTC" Value="2013-04-28"/>
      <ItemData ItemOID="IT.OE.OEDY" Value="189"/>
    </ItemGroupData>
    <ItemGroupData ItemGroupOID="IG.OE" data:ItemGroupDataSeq="163">
      <ItemData ItemOID="IT.OE.STUDYID" Value="CDISCPILOT01"/>
      <ItemData ItemOID="IT.OE.DOMAIN" Value="OE"/>
      <ItemData ItemOID="IT.OE.USUBJID" Value="CDISC009"/>
      <ItemData ItemOID="IT.OE.FOCID" Value="OS"/>
      <ItemData ItemOID="IT.OE.OESEQ" Value="22"/>
      <ItemData ItemOID="IT.OE.OETESTCD" Value="INTP"/>
      <ItemData ItemOID="IT.OE.OETEST" Value="Interpretation"/>
      <ItemData ItemOID="IT.OE.OEORRES" Value="NORMAL"/>
      <ItemData ItemOID="IT.OE.OESTRESC" Value="NORMAL"/>
      <ItemData ItemOID="IT.OE.OELOC" Value="EYE"/>
      <ItemData ItemOID="IT.OE.OELAT" Value="LEFT"/>
      <ItemData ItemOID="IT.OE.OEMETHOD" Value="SLIT LAMP"/>
      <ItemData ItemOID="IT.OE.VISITNUM" Value="13"/>
      <ItemData ItemOID="IT.OE.VISIT" Value="WEEK 26"/>
      <ItemData ItemOID="IT.OE.EPOCH" Value="TREATMENT"/>
      <ItemData ItemOID="IT.OE.OEDTC" Value="2013-04-28"/>
      <ItemData ItemOID="IT.OE.OEDY" Value="189"/>
    </ItemGroupData>
    <ItemGroupData ItemGroupOID="IG.OE" data:ItemGroupDataSeq="164">
      <ItemData ItemOID="IT.OE.STUDYID" Value="CDISCPILOT01"/>
      <ItemData ItemOID="IT.OE.DOMAIN" Value="OE"/>
      <ItemData ItemOID="IT.OE.USUBJID" Value="CDISC010"/>
      <ItemData ItemOID="IT.OE.FOCID" Value="OD"/>
      <ItemData ItemOID="IT.OE.OESEQ" Value="1"/>
      <ItemData ItemOID="IT.OE.OETESTCD" Value="INTP"/>
      <ItemData ItemOID="IT.OE.OETEST" Value="Interpretation"/>
      <ItemData ItemOID="IT.OE.OEORRES" Value="NORMAL"/>
      <ItemData ItemOID="IT.OE.OESTRESC" Value="NORMAL"/>
      <ItemData ItemOID="IT.OE.OELOC" Value="EYE"/>
      <ItemData ItemOID="IT.OE.OELAT" Value="RIGHT"/>
      <ItemData ItemOID="IT.OE.OEMETHOD" Value="SLIT LAMP"/>
      <ItemData ItemOID="IT.OE.VISITNUM" Value="1"/>
      <ItemData ItemOID="IT.OE.VISIT" Value="SCREENING 1"/>
      <ItemData ItemOID="IT.OE.EPOCH" Value="SCREENING"/>
      <ItemData ItemOID="IT.OE.OEDTC" Value="2013-09-08"/>
      <ItemData ItemOID="IT.OE.OEDY" Value="-13"/>
    </ItemGroupData>
    <ItemGroupData ItemGroupOID="IG.OE" data:ItemGroupDataSeq="165">
      <ItemData ItemOID="IT.OE.STUDYID" Value="CDISCPILOT01"/>
      <ItemData ItemOID="IT.OE.DOMAIN" Value="OE"/>
      <ItemData ItemOID="IT.OE.USUBJID" Value="CDISC010"/>
      <ItemData ItemOID="IT.OE.FOCID" Value="OS"/>
      <ItemData ItemOID="IT.OE.OESEQ" Value="2"/>
      <ItemData ItemOID="IT.OE.OETESTCD" Value="INTP"/>
      <ItemData ItemOID="IT.OE.OETEST" Value="Interpretation"/>
      <ItemData ItemOID="IT.OE.OEORRES" Value="NORMAL"/>
      <ItemData ItemOID="IT.OE.OESTRESC" Value="NORMAL"/>
      <ItemData ItemOID="IT.OE.OELOC" Value="EYE"/>
      <ItemData ItemOID="IT.OE.OELAT" Value="LEFT"/>
      <ItemData ItemOID="IT.OE.OEMETHOD" Value="SLIT LAMP"/>
      <ItemData ItemOID="IT.OE.VISITNUM" Value="1"/>
      <ItemData ItemOID="IT.OE.VISIT" Value="SCREENING 1"/>
      <ItemData ItemOID="IT.OE.EPOCH" Value="SCREENING"/>
      <ItemData ItemOID="IT.OE.OEDTC" Value="2013-09-08"/>
      <ItemData ItemOID="IT.OE.OEDY" Value="-13"/>
    </ItemGroupData>
    <ItemGroupData ItemGroupOID="IG.OE" data:ItemGroupDataSeq="166">
      <ItemData ItemOID="IT.OE.STUDYID" Value="CDISCPILOT01"/>
      <ItemData ItemOID="IT.OE.DOMAIN" Value="OE"/>
      <ItemData ItemOID="IT.OE.USUBJID" Value="CDISC010"/>
      <ItemData ItemOID="IT.OE.FOCID" Value="OD"/>
      <ItemData ItemOID="IT.OE.OESEQ" Value="3"/>
      <ItemData ItemOID="IT.OE.OETESTCD" Value="INTP"/>
      <ItemData ItemOID="IT.OE.OETEST" Value="Interpretation"/>
      <ItemData ItemOID="IT.OE.OEORRES" Value="NORMAL"/>
      <ItemData ItemOID="IT.OE.OESTRESC" Value="NORMAL"/>
      <ItemData ItemOID="IT.OE.OELOC" Value="EYE"/>
      <ItemData ItemOID="IT.OE.OELAT" Value="RIGHT"/>
      <ItemData ItemOID="IT.OE.OEMETHOD" Value="SLIT LAMP"/>
      <ItemData ItemOID="IT.OE.VISITNUM" Value="2"/>
      <ItemData ItemOID="IT.OE.VISIT" Value="SCREENING 2"/>
      <ItemData ItemOID="IT.OE.EPOCH" Value="SCREENING"/>
      <ItemData ItemOID="IT.OE.OEDTC" Value="2013-09-19"/>
      <ItemData ItemOID="IT.OE.OEDY" Value="-2"/>
    </ItemGroupData>
    <ItemGroupData ItemGroupOID="IG.OE" data:ItemGroupDataSeq="167">
      <ItemData ItemOID="IT.OE.STUDYID" Value="CDISCPILOT01"/>
      <ItemData ItemOID="IT.OE.DOMAIN" Value="OE"/>
      <ItemData ItemOID="IT.OE.USUBJID" Value="CDISC010"/>
      <ItemData ItemOID="IT.OE.FOCID" Value="OS"/>
      <ItemData ItemOID="IT.OE.OESEQ" Value="4"/>
      <ItemData ItemOID="IT.OE.OETESTCD" Value="INTP"/>
      <ItemData ItemOID="IT.OE.OETEST" Value="Interpretation"/>
      <ItemData ItemOID="IT.OE.OEORRES" Value="NORMAL"/>
      <ItemData ItemOID="IT.OE.OESTRESC" Value="NORMAL"/>
      <ItemData ItemOID="IT.OE.OELOC" Value="EYE"/>
      <ItemData ItemOID="IT.OE.OELAT" Value="LEFT"/>
      <ItemData ItemOID="IT.OE.OEMETHOD" Value="SLIT LAMP"/>
      <ItemData ItemOID="IT.OE.VISITNUM" Value="2"/>
      <ItemData ItemOID="IT.OE.VISIT" Value="SCREENING 2"/>
      <ItemData ItemOID="IT.OE.EPOCH" Value="SCREENING"/>
      <ItemData ItemOID="IT.OE.OEDTC" Value="2013-09-19"/>
      <ItemData ItemOID="IT.OE.OEDY" Value="-2"/>
    </ItemGroupData>
    <ItemGroupData ItemGroupOID="IG.OE" data:ItemGroupDataSeq="168">
      <ItemData ItemOID="IT.OE.STUDYID" Value="CDISCPILOT01"/>
      <ItemData ItemOID="IT.OE.DOMAIN" Value="OE"/>
      <ItemData ItemOID="IT.OE.USUBJID" Value="CDISC010"/>
      <ItemData ItemOID="IT.OE.FOCID" Value="OD"/>
      <ItemData ItemOID="IT.OE.OESEQ" Value="5"/>
      <ItemData ItemOID="IT.OE.OETESTCD" Value="INTP"/>
      <ItemData ItemOID="IT.OE.OETEST" Value="Interpretation"/>
      <ItemData ItemOID="IT.OE.OEORRES" Value="NORMAL"/>
      <ItemData ItemOID="IT.OE.OESTRESC" Value="NORMAL"/>
      <ItemData ItemOID="IT.OE.OELOC" Value="EYE"/>
      <ItemData ItemOID="IT.OE.OELAT" Value="RIGHT"/>
      <ItemData ItemOID="IT.OE.OEMETHOD" Value="SLIT LAMP"/>
      <ItemData ItemOID="IT.OE.OELOBXFL" Value="Y"/>
      <ItemData ItemOID="IT.OE.VISITNUM" Value="3"/>
      <ItemData ItemOID="IT.OE.VISIT" Value="BASELINE"/>
      <ItemData ItemOID="IT.OE.EPOCH" Value="SCREENING"/>
      <ItemData ItemOID="IT.OE.OEDTC" Value="2013-09-21"/>
      <ItemData ItemOID="IT.OE.OEDY" Value="1"/>
    </ItemGroupData>
    <ItemGroupData ItemGroupOID="IG.OE" data:ItemGroupDataSeq="169">
      <ItemData ItemOID="IT.OE.STUDYID" Value="CDISCPILOT01"/>
      <ItemData ItemOID="IT.OE.DOMAIN" Value="OE"/>
      <ItemData ItemOID="IT.OE.USUBJID" Value="CDISC010"/>
      <ItemData ItemOID="IT.OE.FOCID" Value="OS"/>
      <ItemData ItemOID="IT.OE.OESEQ" Value="6"/>
      <ItemData ItemOID="IT.OE.OETESTCD" Value="INTP"/>
      <ItemData ItemOID="IT.OE.OETEST" Value="Interpretation"/>
      <ItemData ItemOID="IT.OE.OEORRES" Value="NORMAL"/>
      <ItemData ItemOID="IT.OE.OESTRESC" Value="NORMAL"/>
      <ItemData ItemOID="IT.OE.OELOC" Value="EYE"/>
      <ItemData ItemOID="IT.OE.OELAT" Value="LEFT"/>
      <ItemData ItemOID="IT.OE.OEMETHOD" Value="SLIT LAMP"/>
      <ItemData ItemOID="IT.OE.OELOBXFL" Value="Y"/>
      <ItemData ItemOID="IT.OE.VISITNUM" Value="3"/>
      <ItemData ItemOID="IT.OE.VISIT" Value="BASELINE"/>
      <ItemData ItemOID="IT.OE.EPOCH" Value="SCREENING"/>
      <ItemData ItemOID="IT.OE.OEDTC" Value="2013-09-21"/>
      <ItemData ItemOID="IT.OE.OEDY" Value="1"/>
    </ItemGroupData>
    <ItemGroupData ItemGroupOID="IG.OE" data:ItemGroupDataSeq="170">
      <ItemData ItemOID="IT.OE.STUDYID" Value="CDISCPILOT01"/>
      <ItemData ItemOID="IT.OE.DOMAIN" Value="OE"/>
      <ItemData ItemOID="IT.OE.USUBJID" Value="CDISC011"/>
      <ItemData ItemOID="IT.OE.FOCID" Value="OD"/>
      <ItemData ItemOID="IT.OE.OESEQ" Value="1"/>
      <ItemData ItemOID="IT.OE.OETESTCD" Value="INTP"/>
      <ItemData ItemOID="IT.OE.OETEST" Value="Interpretation"/>
      <ItemData ItemOID="IT.OE.OEORRES" Value="ABNORMAL"/>
      <ItemData ItemOID="IT.OE.OESTRESC" Value="ABNORMAL"/>
      <ItemData ItemOID="IT.OE.OELOC" Value="EYE"/>
      <ItemData ItemOID="IT.OE.OELAT" Value="RIGHT"/>
      <ItemData ItemOID="IT.OE.OEMETHOD" Value="SLIT LAMP"/>
      <ItemData ItemOID="IT.OE.VISITNUM" Value="1"/>
      <ItemData ItemOID="IT.OE.VISIT" Value="SCREENING 1"/>
      <ItemData ItemOID="IT.OE.EPOCH" Value="SCREENING"/>
      <ItemData ItemOID="IT.OE.OEDTC" Value="2012-11-21"/>
      <ItemData ItemOID="IT.OE.OEDY" Value="-16"/>
    </ItemGroupData>
    <ItemGroupData ItemGroupOID="IG.OE" data:ItemGroupDataSeq="171">
      <ItemData ItemOID="IT.OE.STUDYID" Value="CDISCPILOT01"/>
      <ItemData ItemOID="IT.OE.DOMAIN" Value="OE"/>
      <ItemData ItemOID="IT.OE.USUBJID" Value="CDISC011"/>
      <ItemData ItemOID="IT.OE.FOCID" Value="OD"/>
      <ItemData ItemOID="IT.OE.OESEQ" Value="2"/>
      <ItemData ItemOID="IT.OE.OETESTCD" Value="ABDETAIL"/>
      <ItemData ItemOID="IT.OE.OETEST" Value="Abnormality Detail"/>
      <ItemData ItemOID="IT.OE.OEORRES" Value="HYPEREMIA"/>
      <ItemData ItemOID="IT.OE.OESTRESC" Value="HYPEREMIA"/>
      <ItemData ItemOID="IT.OE.OELOC" Value="CONJUNCTIVA"/>
      <ItemData ItemOID="IT.OE.OELAT" Value="RIGHT"/>
      <ItemData ItemOID="IT.OE.OEMETHOD" Value="SLIT LAMP"/>
      <ItemData ItemOID="IT.OE.VISITNUM" Value="1"/>
      <ItemData ItemOID="IT.OE.VISIT" Value="SCREENING 1"/>
      <ItemData ItemOID="IT.OE.EPOCH" Value="SCREENING"/>
      <ItemData ItemOID="IT.OE.OEDTC" Value="2012-11-21"/>
      <ItemData ItemOID="IT.OE.OEDY" Value="-16"/>
    </ItemGroupData>
    <ItemGroupData ItemGroupOID="IG.OE" data:ItemGroupDataSeq="172">
      <ItemData ItemOID="IT.OE.STUDYID" Value="CDISCPILOT01"/>
      <ItemData ItemOID="IT.OE.DOMAIN" Value="OE"/>
      <ItemData ItemOID="IT.OE.USUBJID" Value="CDISC011"/>
      <ItemData ItemOID="IT.OE.FOCID" Value="OS"/>
      <ItemData ItemOID="IT.OE.OESEQ" Value="3"/>
      <ItemData ItemOID="IT.OE.OETESTCD" Value="INTP"/>
      <ItemData ItemOID="IT.OE.OETEST" Value="Interpretation"/>
      <ItemData ItemOID="IT.OE.OEORRES" Value="NORMAL"/>
      <ItemData ItemOID="IT.OE.OESTRESC" Value="NORMAL"/>
      <ItemData ItemOID="IT.OE.OELOC" Value="EYE"/>
      <ItemData ItemOID="IT.OE.OELAT" Value="LEFT"/>
      <ItemData ItemOID="IT.OE.OEMETHOD" Value="SLIT LAMP"/>
      <ItemData ItemOID="IT.OE.VISITNUM" Value="1"/>
      <ItemData ItemOID="IT.OE.VISIT" Value="SCREENING 1"/>
      <ItemData ItemOID="IT.OE.EPOCH" Value="SCREENING"/>
      <ItemData ItemOID="IT.OE.OEDTC" Value="2012-11-21"/>
      <ItemData ItemOID="IT.OE.OEDY" Value="-16"/>
    </ItemGroupData>
    <ItemGroupData ItemGroupOID="IG.OE" data:ItemGroupDataSeq="173">
      <ItemData ItemOID="IT.OE.STUDYID" Value="CDISCPILOT01"/>
      <ItemData ItemOID="IT.OE.DOMAIN" Value="OE"/>
      <ItemData ItemOID="IT.OE.USUBJID" Value="CDISC011"/>
      <ItemData ItemOID="IT.OE.FOCID" Value="OD"/>
      <ItemData ItemOID="IT.OE.OESEQ" Value="4"/>
      <ItemData ItemOID="IT.OE.OETESTCD" Value="INTP"/>
      <ItemData ItemOID="IT.OE.OETEST" Value="Interpretation"/>
      <ItemData ItemOID="IT.OE.OEORRES" Value="ABNORMAL"/>
      <ItemData ItemOID="IT.OE.OESTRESC" Value="ABNORMAL"/>
      <ItemData ItemOID="IT.OE.OELOC" Value="EYE"/>
      <ItemData ItemOID="IT.OE.OELAT" Value="RIGHT"/>
      <ItemData ItemOID="IT.OE.OEMETHOD" Value="SLIT LAMP"/>
      <ItemData ItemOID="IT.OE.VISITNUM" Value="2"/>
      <ItemData ItemOID="IT.OE.VISIT" Value="SCREENING 2"/>
      <ItemData ItemOID="IT.OE.EPOCH" Value="SCREENING"/>
      <ItemData ItemOID="IT.OE.OEDTC" Value="2012-12-05"/>
      <ItemData ItemOID="IT.OE.OEDY" Value="-2"/>
    </ItemGroupData>
    <ItemGroupData ItemGroupOID="IG.OE" data:ItemGroupDataSeq="174">
      <ItemData ItemOID="IT.OE.STUDYID" Value="CDISCPILOT01"/>
      <ItemData ItemOID="IT.OE.DOMAIN" Value="OE"/>
      <ItemData ItemOID="IT.OE.USUBJID" Value="CDISC011"/>
      <ItemData ItemOID="IT.OE.FOCID" Value="OD"/>
      <ItemData ItemOID="IT.OE.OESEQ" Value="5"/>
      <ItemData ItemOID="IT.OE.OETESTCD" Value="ABDETAIL"/>
      <ItemData ItemOID="IT.OE.OETEST" Value="Abnormality Detail"/>
      <ItemData ItemOID="IT.OE.OEORRES" Value="HYPEREMIA"/>
      <ItemData ItemOID="IT.OE.OESTRESC" Value="HYPEREMIA"/>
      <ItemData ItemOID="IT.OE.OELOC" Value="CONJUNCTIVA"/>
      <ItemData ItemOID="IT.OE.OELAT" Value="RIGHT"/>
      <ItemData ItemOID="IT.OE.OEMETHOD" Value="SLIT LAMP"/>
      <ItemData ItemOID="IT.OE.VISITNUM" Value="2"/>
      <ItemData ItemOID="IT.OE.VISIT" Value="SCREENING 2"/>
      <ItemData ItemOID="IT.OE.EPOCH" Value="SCREENING"/>
      <ItemData ItemOID="IT.OE.OEDTC" Value="2012-12-05"/>
      <ItemData ItemOID="IT.OE.OEDY" Value="-2"/>
    </ItemGroupData>
    <ItemGroupData ItemGroupOID="IG.OE" data:ItemGroupDataSeq="175">
      <ItemData ItemOID="IT.OE.STUDYID" Value="CDISCPILOT01"/>
      <ItemData ItemOID="IT.OE.DOMAIN" Value="OE"/>
      <ItemData ItemOID="IT.OE.USUBJID" Value="CDISC011"/>
      <ItemData ItemOID="IT.OE.FOCID" Value="OS"/>
      <ItemData ItemOID="IT.OE.OESEQ" Value="6"/>
      <ItemData ItemOID="IT.OE.OETESTCD" Value="INTP"/>
      <ItemData ItemOID="IT.OE.OETEST" Value="Interpretation"/>
      <ItemData ItemOID="IT.OE.OEORRES" Value="NORMAL"/>
      <ItemData ItemOID="IT.OE.OESTRESC" Value="NORMAL"/>
      <ItemData ItemOID="IT.OE.OELOC" Value="EYE"/>
      <ItemData ItemOID="IT.OE.OELAT" Value="LEFT"/>
      <ItemData ItemOID="IT.OE.OEMETHOD" Value="SLIT LAMP"/>
      <ItemData ItemOID="IT.OE.VISITNUM" Value="2"/>
      <ItemData ItemOID="IT.OE.VISIT" Value="SCREENING 2"/>
      <ItemData ItemOID="IT.OE.EPOCH" Value="SCREENING"/>
      <ItemData ItemOID="IT.OE.OEDTC" Value="2012-12-05"/>
      <ItemData ItemOID="IT.OE.OEDY" Value="-2"/>
    </ItemGroupData>
    <ItemGroupData ItemGroupOID="IG.OE" data:ItemGroupDataSeq="176">
      <ItemData ItemOID="IT.OE.STUDYID" Value="CDISCPILOT01"/>
      <ItemData ItemOID="IT.OE.DOMAIN" Value="OE"/>
      <ItemData ItemOID="IT.OE.USUBJID" Value="CDISC011"/>
      <ItemData ItemOID="IT.OE.FOCID" Value="OD"/>
      <ItemData ItemOID="IT.OE.OESEQ" Value="7"/>
      <ItemData ItemOID="IT.OE.OETESTCD" Value="INTP"/>
      <ItemData ItemOID="IT.OE.OETEST" Value="Interpretation"/>
      <ItemData ItemOID="IT.OE.OEORRES" Value="ABNORMAL"/>
      <ItemData ItemOID="IT.OE.OESTRESC" Value="ABNORMAL"/>
      <ItemData ItemOID="IT.OE.OELOC" Value="EYE"/>
      <ItemData ItemOID="IT.OE.OELAT" Value="RIGHT"/>
      <ItemData ItemOID="IT.OE.OEMETHOD" Value="SLIT LAMP"/>
      <ItemData ItemOID="IT.OE.OELOBXFL" Value="Y"/>
      <ItemData ItemOID="IT.OE.VISITNUM" Value="3"/>
      <ItemData ItemOID="IT.OE.VISIT" Value="BASELINE"/>
      <ItemData ItemOID="IT.OE.EPOCH" Value="SCREENING"/>
      <ItemData ItemOID="IT.OE.OEDTC" Value="2012-12-07"/>
      <ItemData ItemOID="IT.OE.OEDY" Value="1"/>
    </ItemGroupData>
    <ItemGroupData ItemGroupOID="IG.OE" data:ItemGroupDataSeq="177">
      <ItemData ItemOID="IT.OE.STUDYID" Value="CDISCPILOT01"/>
      <ItemData ItemOID="IT.OE.DOMAIN" Value="OE"/>
      <ItemData ItemOID="IT.OE.USUBJID" Value="CDISC011"/>
      <ItemData ItemOID="IT.OE.FOCID" Value="OD"/>
      <ItemData ItemOID="IT.OE.OESEQ" Value="8"/>
      <ItemData ItemOID="IT.OE.OETESTCD" Value="ABDETAIL"/>
      <ItemData ItemOID="IT.OE.OETEST" Value="Abnormality Detail"/>
      <ItemData ItemOID="IT.OE.OEORRES" Value="HYPEREMIA"/>
      <ItemData ItemOID="IT.OE.OESTRESC" Value="HYPEREMIA"/>
      <ItemData ItemOID="IT.OE.OELOC" Value="CONJUNCTIVA"/>
      <ItemData ItemOID="IT.OE.OELAT" Value="RIGHT"/>
      <ItemData ItemOID="IT.OE.OEMETHOD" Value="SLIT LAMP"/>
      <ItemData ItemOID="IT.OE.VISITNUM" Value="3"/>
      <ItemData ItemOID="IT.OE.VISIT" Value="BASELINE"/>
      <ItemData ItemOID="IT.OE.EPOCH" Value="SCREENING"/>
      <ItemData ItemOID="IT.OE.OEDTC" Value="2012-12-07"/>
      <ItemData ItemOID="IT.OE.OEDY" Value="1"/>
    </ItemGroupData>
    <ItemGroupData ItemGroupOID="IG.OE" data:ItemGroupDataSeq="178">
      <ItemData ItemOID="IT.OE.STUDYID" Value="CDISCPILOT01"/>
      <ItemData ItemOID="IT.OE.DOMAIN" Value="OE"/>
      <ItemData ItemOID="IT.OE.USUBJID" Value="CDISC011"/>
      <ItemData ItemOID="IT.OE.FOCID" Value="OS"/>
      <ItemData ItemOID="IT.OE.OESEQ" Value="9"/>
      <ItemData ItemOID="IT.OE.OETESTCD" Value="INTP"/>
      <ItemData ItemOID="IT.OE.OETEST" Value="Interpretation"/>
      <ItemData ItemOID="IT.OE.OEORRES" Value="NORMAL"/>
      <ItemData ItemOID="IT.OE.OESTRESC" Value="NORMAL"/>
      <ItemData ItemOID="IT.OE.OELOC" Value="EYE"/>
      <ItemData ItemOID="IT.OE.OELAT" Value="LEFT"/>
      <ItemData ItemOID="IT.OE.OEMETHOD" Value="SLIT LAMP"/>
      <ItemData ItemOID="IT.OE.OELOBXFL" Value="Y"/>
      <ItemData ItemOID="IT.OE.VISITNUM" Value="3"/>
      <ItemData ItemOID="IT.OE.VISIT" Value="BASELINE"/>
      <ItemData ItemOID="IT.OE.EPOCH" Value="SCREENING"/>
      <ItemData ItemOID="IT.OE.OEDTC" Value="2012-12-07"/>
      <ItemData ItemOID="IT.OE.OEDY" Value="1"/>
    </ItemGroupData>
    <ItemGroupData ItemGroupOID="IG.OE" data:ItemGroupDataSeq="179">
      <ItemData ItemOID="IT.OE.STUDYID" Value="CDISCPILOT01"/>
      <ItemData ItemOID="IT.OE.DOMAIN" Value="OE"/>
      <ItemData ItemOID="IT.OE.USUBJID" Value="CDISC011"/>
      <ItemData ItemOID="IT.OE.FOCID" Value="OD"/>
      <ItemData ItemOID="IT.OE.OESEQ" Value="10"/>
      <ItemData ItemOID="IT.OE.OETESTCD" Value="INTP"/>
      <ItemData ItemOID="IT.OE.OETEST" Value="Interpretation"/>
      <ItemData ItemOID="IT.OE.OEORRES" Value="NORMAL"/>
      <ItemData ItemOID="IT.OE.OESTRESC" Value="NORMAL"/>
      <ItemData ItemOID="IT.OE.OELOC" Value="EYE"/>
      <ItemData ItemOID="IT.OE.OELAT" Value="RIGHT"/>
      <ItemData ItemOID="IT.OE.OEMETHOD" Value="SLIT LAMP"/>
      <ItemData ItemOID="IT.OE.VISITNUM" Value="4"/>
      <ItemData ItemOID="IT.OE.VISIT" Value="WEEK 2"/>
      <ItemData ItemOID="IT.OE.EPOCH" Value="TREATMENT"/>
      <ItemData ItemOID="IT.OE.OEDTC" Value="2012-12-21"/>
      <ItemData ItemOID="IT.OE.OEDY" Value="15"/>
    </ItemGroupData>
    <ItemGroupData ItemGroupOID="IG.OE" data:ItemGroupDataSeq="180">
      <ItemData ItemOID="IT.OE.STUDYID" Value="CDISCPILOT01"/>
      <ItemData ItemOID="IT.OE.DOMAIN" Value="OE"/>
      <ItemData ItemOID="IT.OE.USUBJID" Value="CDISC011"/>
      <ItemData ItemOID="IT.OE.FOCID" Value="OS"/>
      <ItemData ItemOID="IT.OE.OESEQ" Value="11"/>
      <ItemData ItemOID="IT.OE.OETESTCD" Value="INTP"/>
      <ItemData ItemOID="IT.OE.OETEST" Value="Interpretation"/>
      <ItemData ItemOID="IT.OE.OEORRES" Value="NORMAL"/>
      <ItemData ItemOID="IT.OE.OESTRESC" Value="NORMAL"/>
      <ItemData ItemOID="IT.OE.OELOC" Value="EYE"/>
      <ItemData ItemOID="IT.OE.OELAT" Value="LEFT"/>
      <ItemData ItemOID="IT.OE.OEMETHOD" Value="SLIT LAMP"/>
      <ItemData ItemOID="IT.OE.VISITNUM" Value="4"/>
      <ItemData ItemOID="IT.OE.VISIT" Value="WEEK 2"/>
      <ItemData ItemOID="IT.OE.EPOCH" Value="TREATMENT"/>
      <ItemData ItemOID="IT.OE.OEDTC" Value="2012-12-21"/>
      <ItemData ItemOID="IT.OE.OEDY" Value="15"/>
    </ItemGroupData>
    <ItemGroupData ItemGroupOID="IG.OE" data:ItemGroupDataSeq="181">
      <ItemData ItemOID="IT.OE.STUDYID" Value="CDISCPILOT01"/>
      <ItemData ItemOID="IT.OE.DOMAIN" Value="OE"/>
      <ItemData ItemOID="IT.OE.USUBJID" Value="CDISC011"/>
      <ItemData ItemOID="IT.OE.FOCID" Value="OD"/>
      <ItemData ItemOID="IT.OE.OESEQ" Value="12"/>
      <ItemData ItemOID="IT.OE.OETESTCD" Value="INTP"/>
      <ItemData ItemOID="IT.OE.OETEST" Value="Interpretation"/>
      <ItemData ItemOID="IT.OE.OEORRES" Value="NORMAL"/>
      <ItemData ItemOID="IT.OE.OESTRESC" Value="NORMAL"/>
      <ItemData ItemOID="IT.OE.OELOC" Value="EYE"/>
      <ItemData ItemOID="IT.OE.OELAT" Value="RIGHT"/>
      <ItemData ItemOID="IT.OE.OEMETHOD" Value="SLIT LAMP"/>
      <ItemData ItemOID="IT.OE.VISITNUM" Value="5"/>
      <ItemData ItemOID="IT.OE.VISIT" Value="WEEK 4"/>
      <ItemData ItemOID="IT.OE.EPOCH" Value="TREATMENT"/>
      <ItemData ItemOID="IT.OE.OEDTC" Value="2013-01-01"/>
      <ItemData ItemOID="IT.OE.OEDY" Value="26"/>
    </ItemGroupData>
    <ItemGroupData ItemGroupOID="IG.OE" data:ItemGroupDataSeq="182">
      <ItemData ItemOID="IT.OE.STUDYID" Value="CDISCPILOT01"/>
      <ItemData ItemOID="IT.OE.DOMAIN" Value="OE"/>
      <ItemData ItemOID="IT.OE.USUBJID" Value="CDISC011"/>
      <ItemData ItemOID="IT.OE.FOCID" Value="OS"/>
      <ItemData ItemOID="IT.OE.OESEQ" Value="13"/>
      <ItemData ItemOID="IT.OE.OETESTCD" Value="INTP"/>
      <ItemData ItemOID="IT.OE.OETEST" Value="Interpretation"/>
      <ItemData ItemOID="IT.OE.OEORRES" Value="NORMAL"/>
      <ItemData ItemOID="IT.OE.OESTRESC" Value="NORMAL"/>
      <ItemData ItemOID="IT.OE.OELOC" Value="EYE"/>
      <ItemData ItemOID="IT.OE.OELAT" Value="LEFT"/>
      <ItemData ItemOID="IT.OE.OEMETHOD" Value="SLIT LAMP"/>
      <ItemData ItemOID="IT.OE.VISITNUM" Value="5"/>
      <ItemData ItemOID="IT.OE.VISIT" Value="WEEK 4"/>
      <ItemData ItemOID="IT.OE.EPOCH" Value="TREATMENT"/>
      <ItemData ItemOID="IT.OE.OEDTC" Value="2013-01-01"/>
      <ItemData ItemOID="IT.OE.OEDY" Value="26"/>
    </ItemGroupData>
    <ItemGroupData ItemGroupOID="IG.OE" data:ItemGroupDataSeq="183">
      <ItemData ItemOID="IT.OE.STUDYID" Value="CDISCPILOT01"/>
      <ItemData ItemOID="IT.OE.DOMAIN" Value="OE"/>
      <ItemData ItemOID="IT.OE.USUBJID" Value="CDISC011"/>
      <ItemData ItemOID="IT.OE.FOCID" Value="OD"/>
      <ItemData ItemOID="IT.OE.OESEQ" Value="14"/>
      <ItemData ItemOID="IT.OE.OETESTCD" Value="INTP"/>
      <ItemData ItemOID="IT.OE.OETEST" Value="Interpretation"/>
      <ItemData ItemOID="IT.OE.OEORRES" Value="NORMAL"/>
      <ItemData ItemOID="IT.OE.OESTRESC" Value="NORMAL"/>
      <ItemData ItemOID="IT.OE.OELOC" Value="EYE"/>
      <ItemData ItemOID="IT.OE.OELAT" Value="RIGHT"/>
      <ItemData ItemOID="IT.OE.OEMETHOD" Value="SLIT LAMP"/>
      <ItemData ItemOID="IT.OE.VISITNUM" Value="8"/>
      <ItemData ItemOID="IT.OE.VISIT" Value="WEEK 8"/>
      <ItemData ItemOID="IT.OE.EPOCH" Value="TREATMENT"/>
      <ItemData ItemOID="IT.OE.OEDTC" Value="2013-01-29"/>
      <ItemData ItemOID="IT.OE.OEDY" Value="54"/>
    </ItemGroupData>
    <ItemGroupData ItemGroupOID="IG.OE" data:ItemGroupDataSeq="184">
      <ItemData ItemOID="IT.OE.STUDYID" Value="CDISCPILOT01"/>
      <ItemData ItemOID="IT.OE.DOMAIN" Value="OE"/>
      <ItemData ItemOID="IT.OE.USUBJID" Value="CDISC011"/>
      <ItemData ItemOID="IT.OE.FOCID" Value="OS"/>
      <ItemData ItemOID="IT.OE.OESEQ" Value="15"/>
      <ItemData ItemOID="IT.OE.OETESTCD" Value="INTP"/>
      <ItemData ItemOID="IT.OE.OETEST" Value="Interpretation"/>
      <ItemData ItemOID="IT.OE.OEORRES" Value="NORMAL"/>
      <ItemData ItemOID="IT.OE.OESTRESC" Value="NORMAL"/>
      <ItemData ItemOID="IT.OE.OELOC" Value="EYE"/>
      <ItemData ItemOID="IT.OE.OELAT" Value="LEFT"/>
      <ItemData ItemOID="IT.OE.OEMETHOD" Value="SLIT LAMP"/>
      <ItemData ItemOID="IT.OE.VISITNUM" Value="8"/>
      <ItemData ItemOID="IT.OE.VISIT" Value="WEEK 8"/>
      <ItemData ItemOID="IT.OE.EPOCH" Value="TREATMENT"/>
      <ItemData ItemOID="IT.OE.OEDTC" Value="2013-01-29"/>
      <ItemData ItemOID="IT.OE.OEDY" Value="54"/>
    </ItemGroupData>
    <ItemGroupData ItemGroupOID="IG.OE" data:ItemGroupDataSeq="185">
      <ItemData ItemOID="IT.OE.STUDYID" Value="CDISCPILOT01"/>
      <ItemData ItemOID="IT.OE.DOMAIN" Value="OE"/>
      <ItemData ItemOID="IT.OE.USUBJID" Value="CDISC011"/>
      <ItemData ItemOID="IT.OE.FOCID" Value="OD"/>
      <ItemData ItemOID="IT.OE.OESEQ" Value="16"/>
      <ItemData ItemOID="IT.OE.OETESTCD" Value="INTP"/>
      <ItemData ItemOID="IT.OE.OETEST" Value="Interpretation"/>
      <ItemData ItemOID="IT.OE.OEORRES" Value="NORMAL"/>
      <ItemData ItemOID="IT.OE.OESTRESC" Value="NORMAL"/>
      <ItemData ItemOID="IT.OE.OELOC" Value="EYE"/>
      <ItemData ItemOID="IT.OE.OELAT" Value="RIGHT"/>
      <ItemData ItemOID="IT.OE.OEMETHOD" Value="SLIT LAMP"/>
      <ItemData ItemOID="IT.OE.VISITNUM" Value="9"/>
      <ItemData ItemOID="IT.OE.VISIT" Value="WEEK 12"/>
      <ItemData ItemOID="IT.OE.EPOCH" Value="TREATMENT"/>
      <ItemData ItemOID="IT.OE.OEDTC" Value="2013-02-27"/>
      <ItemData ItemOID="IT.OE.OEDY" Value="83"/>
    </ItemGroupData>
    <ItemGroupData ItemGroupOID="IG.OE" data:ItemGroupDataSeq="186">
      <ItemData ItemOID="IT.OE.STUDYID" Value="CDISCPILOT01"/>
      <ItemData ItemOID="IT.OE.DOMAIN" Value="OE"/>
      <ItemData ItemOID="IT.OE.USUBJID" Value="CDISC011"/>
      <ItemData ItemOID="IT.OE.FOCID" Value="OS"/>
      <ItemData ItemOID="IT.OE.OESEQ" Value="17"/>
      <ItemData ItemOID="IT.OE.OETESTCD" Value="INTP"/>
      <ItemData ItemOID="IT.OE.OETEST" Value="Interpretation"/>
      <ItemData ItemOID="IT.OE.OEORRES" Value="NORMAL"/>
      <ItemData ItemOID="IT.OE.OESTRESC" Value="NORMAL"/>
      <ItemData ItemOID="IT.OE.OELOC" Value="EYE"/>
      <ItemData ItemOID="IT.OE.OELAT" Value="LEFT"/>
      <ItemData ItemOID="IT.OE.OEMETHOD" Value="SLIT LAMP"/>
      <ItemData ItemOID="IT.OE.VISITNUM" Value="9"/>
      <ItemData ItemOID="IT.OE.VISIT" Value="WEEK 12"/>
      <ItemData ItemOID="IT.OE.EPOCH" Value="TREATMENT"/>
      <ItemData ItemOID="IT.OE.OEDTC" Value="2013-02-27"/>
      <ItemData ItemOID="IT.OE.OEDY" Value="83"/>
    </ItemGroupData>
    <ItemGroupData ItemGroupOID="IG.OE" data:ItemGroupDataSeq="187">
      <ItemData ItemOID="IT.OE.STUDYID" Value="CDISCPILOT01"/>
      <ItemData ItemOID="IT.OE.DOMAIN" Value="OE"/>
      <ItemData ItemOID="IT.OE.USUBJID" Value="CDISC011"/>
      <ItemData ItemOID="IT.OE.FOCID" Value="OD"/>
      <ItemData ItemOID="IT.OE.OESEQ" Value="18"/>
      <ItemData ItemOID="IT.OE.OETESTCD" Value="INTP"/>
      <ItemData ItemOID="IT.OE.OETEST" Value="Interpretation"/>
      <ItemData ItemOID="IT.OE.OEORRES" Value="NORMAL"/>
      <ItemData ItemOID="IT.OE.OESTRESC" Value="NORMAL"/>
      <ItemData ItemOID="IT.OE.OELOC" Value="EYE"/>
      <ItemData ItemOID="IT.OE.OELAT" Value="RIGHT"/>
      <ItemData ItemOID="IT.OE.OEMETHOD" Value="SLIT LAMP"/>
      <ItemData ItemOID="IT.OE.VISITNUM" Value="10"/>
      <ItemData ItemOID="IT.OE.VISIT" Value="WEEK 16"/>
      <ItemData ItemOID="IT.OE.EPOCH" Value="TREATMENT"/>
      <ItemData ItemOID="IT.OE.OEDTC" Value="2013-03-27"/>
      <ItemData ItemOID="IT.OE.OEDY" Value="111"/>
    </ItemGroupData>
    <ItemGroupData ItemGroupOID="IG.OE" data:ItemGroupDataSeq="188">
      <ItemData ItemOID="IT.OE.STUDYID" Value="CDISCPILOT01"/>
      <ItemData ItemOID="IT.OE.DOMAIN" Value="OE"/>
      <ItemData ItemOID="IT.OE.USUBJID" Value="CDISC011"/>
      <ItemData ItemOID="IT.OE.FOCID" Value="OS"/>
      <ItemData ItemOID="IT.OE.OESEQ" Value="19"/>
      <ItemData ItemOID="IT.OE.OETESTCD" Value="INTP"/>
      <ItemData ItemOID="IT.OE.OETEST" Value="Interpretation"/>
      <ItemData ItemOID="IT.OE.OEORRES" Value="NORMAL"/>
      <ItemData ItemOID="IT.OE.OESTRESC" Value="NORMAL"/>
      <ItemData ItemOID="IT.OE.OELOC" Value="EYE"/>
      <ItemData ItemOID="IT.OE.OELAT" Value="LEFT"/>
      <ItemData ItemOID="IT.OE.OEMETHOD" Value="SLIT LAMP"/>
      <ItemData ItemOID="IT.OE.VISITNUM" Value="10"/>
      <ItemData ItemOID="IT.OE.VISIT" Value="WEEK 16"/>
      <ItemData ItemOID="IT.OE.EPOCH" Value="TREATMENT"/>
      <ItemData ItemOID="IT.OE.OEDTC" Value="2013-03-27"/>
      <ItemData ItemOID="IT.OE.OEDY" Value="111"/>
    </ItemGroupData>
    <ItemGroupData ItemGroupOID="IG.OE" data:ItemGroupDataSeq="189">
      <ItemData ItemOID="IT.OE.STUDYID" Value="CDISCPILOT01"/>
      <ItemData ItemOID="IT.OE.DOMAIN" Value="OE"/>
      <ItemData ItemOID="IT.OE.USUBJID" Value="CDISC011"/>
      <ItemData ItemOID="IT.OE.FOCID" Value="OD"/>
      <ItemData ItemOID="IT.OE.OESEQ" Value="20"/>
      <ItemData ItemOID="IT.OE.OETESTCD" Value="INTP"/>
      <ItemData ItemOID="IT.OE.OETEST" Value="Interpretation"/>
      <ItemData ItemOID="IT.OE.OEORRES" Value="NORMAL"/>
      <ItemData ItemOID="IT.OE.OESTRESC" Value="NORMAL"/>
      <ItemData ItemOID="IT.OE.OELOC" Value="EYE"/>
      <ItemData ItemOID="IT.OE.OELAT" Value="RIGHT"/>
      <ItemData ItemOID="IT.OE.OEMETHOD" Value="SLIT LAMP"/>
      <ItemData ItemOID="IT.OE.VISITNUM" Value="11"/>
      <ItemData ItemOID="IT.OE.VISIT" Value="WEEK 20"/>
      <ItemData ItemOID="IT.OE.EPOCH" Value="TREATMENT"/>
