<?xml version="1.0" encoding="UTF-8"?>
<!-- Dataset-XML: Untyped Data Example  --> 
<!-- Built from the SAS XPT files published with the SDTM-MSG (SDTM Metadata Submission Guidelines) V2.0 --> 
<ODM
  xmlns="http://www.cdisc.org/ns/odm/v1.3"
  xmlns:xlink="http://www.w3.org/1999/xlink" 
  xmlns:data="http://www.cdisc.org/ns/Dataset-XML/v1.0"
  FileType="Snapshot"
  ODMVersion="1.3.2"
  data:DatasetXMLVersion="1.0.0"
  FileOID="www.cdisc.org/StudyMSGv2/1/Define-XML_2.1.0(IG.SUPPDM).Data(SUPPDM)"
  PriorFileOID="www.cdisc.org/StudyMSGv2/1/Define-XML_2.1.0"
  CreationDateTime="2020-08-21T09:21:13"
  Originator="CDISC MSG Team"
  SourceSystem="M.Hungria-System"
  SourceSystemVersion="2.1-A1"
  >
  <ClinicalData
    StudyOID="cdisc.com/CDISCPILOT01"
    MetaDataVersionOID="MDV.MSGv2.0.SDTMIG.3.3.SDTM.1.7">
    <!-- Dataset (SUPPDM) -->
    <ItemGroupData ItemGroupOID="IG.SUPPDM" data:ItemGroupDataSeq="1">
      <ItemData ItemOID="IT.SUPPDM.STUDYID" Value="CDISCPILOT01"/>
      <ItemData ItemOID="IT.SUPPDM.RDOMAIN" Value="DM"/>
      <ItemData ItemOID="IT.SUPPDM.USUBJID" Value="CDISC008"/>
      <ItemData ItemOID="IT.SUPPDM.QNAM" Value="RACE1"/>
      <ItemData ItemOID="IT.SUPPDM.QLABEL" Value="Race 1"/>
      <ItemData ItemOID="IT.SUPPDM.QVAL" Value="ASIAN"/>
      <ItemData ItemOID="IT.SUPPDM.QORIG" Value="CRF"/>
    </ItemGroupData>
    <ItemGroupData ItemGroupOID="IG.SUPPDM" data:ItemGroupDataSeq="2">
      <ItemData ItemOID="IT.SUPPDM.STUDYID" Value="CDISCPILOT01"/>
      <ItemData ItemOID="IT.SUPPDM.RDOMAIN" Value="DM"/>
      <ItemData ItemOID="IT.SUPPDM.USUBJID" Value="CDISC008"/>
      <ItemData ItemOID="IT.SUPPDM.QNAM" Value="RACE2"/>
      <ItemData ItemOID="IT.SUPPDM.QLABEL" Value="Race 2"/>
      <ItemData ItemOID="IT.SUPPDM.QVAL" Value="BLACK OR AFRICAN AMERICAN"/>
      <ItemData ItemOID="IT.SUPPDM.QORIG" Value="CRF"/>
    </ItemGroupData>
    <ItemGroupData ItemGroupOID="IG.SUPPDM" data:ItemGroupDataSeq="3">
      <ItemData ItemOID="IT.SUPPDM.STUDYID" Value="CDISCPILOT01"/>
      <ItemData ItemOID="IT.SUPPDM.RDOMAIN" Value="DM"/>
      <ItemData ItemOID="IT.SUPPDM.USUBJID" Value="CDISC008"/>
      <ItemData ItemOID="IT.SUPPDM.QNAM" Value="RACE3"/>
      <ItemData ItemOID="IT.SUPPDM.QLABEL" Value="Race 3"/>
      <ItemData ItemOID="IT.SUPPDM.QVAL" Value="WHITE"/>
      <ItemData ItemOID="IT.SUPPDM.QORIG" Value="CRF"/>
    </ItemGroupData>
  </ClinicalData>
</ODM>
