"Pinnacle 21 ID","Publisher ID","Message","Description","Category","Severity"
"AD0001","1","Missing ADSL dataset","ADaM Subject level (ADSL) dataset should be included in every submission.","Presence","Reject"
"AD0005B","5, 33, 34, 710, 711","*FL value is not Y, N or null","A variable with a suffix of FL must have value that is Y, N or null (Exception 1: ABLFL, ANLzzFL. Exception 2: Population flags COMPLFL, FASFL, ITTFL, PPROTFL, SAFFL, RANDFL, ENRLFL cannot be null and at least 1 must be included in ADSL).","Terminology",""
"AD0006B","6, 35, 36, 712, 713","*FN value is not 0, 1 or null","A variable with a suffix of FN has a value that is not 0, 1, or null (Exception: ABLFN, ANLzzFN, and numeric population flags COMPLFN, FASFN, ITTFN, PPROTFN, SAFFN, RANDFN, ENRLFN cannot be null and at least 1 must be included in ADSL).","Terminology",""
"AD0007","7, 525, 526, 567, 568, 569, 839, 844","Secondary variable *FN is present, but its primary variable *FL is not present","If a Flag Numeric (*FN) variable is present, its corresponding Flag Character (*FL) variable must be present.","Presence",""
"AD0010","10, 408, 409, 410, 412, 413, 414, 486, 488, 490","*FL = Y and *FN != 1","When a Flag variable (FL) is Y, its corresponding Flag numeric variable (FN) must be 1.","Consistency",""
"AD0011","11, 408, 412, 486, 488, 490, 835, 840","*FL = N and *FN != 0","When a Flag variable (FL) is N, its corresponding Flag numeric variable (FN) must be 0.","Consistency",""
"AD0012","12, 407, 411, 487, 489, 491, 836, 841","Secondary variable *FN is populated, but its primary variable *FL is not populated","When a numeric Flag variable (*FN) is populated, its corresponding character Flag variable (*FL) must be populated.","Consistency",""
"AD0013","13, 14, 15","Illegal variable name: basic format is violated","A variable must be a max of 8 characters, start with a letter A-Z and does not contain anything other than letters, numbers, underscore (_).","Format",""
"AD0018","18, 708, 709","Variable label mismatch between dataset and ADaM standard","The variable label in the dataset should match the variable label described in ADaM. When creating a new variable, labels can be adjusted as appropriate. Currently, this rule runs if a variable has a label that is defined in the ADaM metadata.","Metadata",""
"AD0019","19, 20, 21, 22, 23, 24, 25","Variable subject-population flag value is null","For subject-level character population flag variables: N = no (not included), Y = yes (included). Null values are not allowed.","Presence",""
"AD0026","26, 27, 28, 29, 30, 31, 32","Variable subject-population flag value is null","For subject-level numeric population flag variables: 0 = no (not included), 1 = yes (included). Null values are not allowed.","Presence",""
"AD0037B","37, 286, 292, 298, 674, 714, 774, 780, 786","Inconsistent value for *GRyN","Within a study, all *GRyN values must be the same for each unique value of *GRy when the primary variable *GRy is populated. ADaM IG v1.1 p.15 general variable naming conventions #10: If any combining of the SDTM character categories is done, the name of the derived ADaM character grouping variable should end in GRy and the name of its numeric equivalent should end in GRyN where y is an integer from 1-9 representing a grouping scheme. CDISC created 3 new explicit rules for ADAE which were already covered by this general rule. Considering only those rows on which both variables are populated.","Consistency",""
"AD0038B","38, 285, 291, 297, 673, 715, 773, 779, 785","Inconsistent value for *GRy","Within a study, all *GRy values must be the same for each unique value of *GRyN when the primary variable *GRy is populated. ADaM IG v1.1 p.15 general variable naming conventions #10: If any combining of the SDTM character categories is done, the name of the derived ADaM character grouping variable should end in GRy and the name of its numeric equivalent should end in GRyN where y is an integer from 1-9 representing a grouping scheme. CDISC created 3 new explicit rules for ADAE which were already covered by this general rule. Considering only those rows on which both variables are populated.","Consistency",""
"AD0041","41","*DT does not have the ADaM required SAS Date format","The SAS format listed in the dataset must be valid. Here is a list of SAS Date formats utilized in the rule algorithm: B8601DA, B8601DN , DATE, DAY, DDMMYY, DDMMYYB, DDMMYYC, DDMMYYD, DDMMYYN, DDMMYYP, DDMMYYS, DOWNAME, DTMONYY, E8601DA, JULDAY, JULIAN, MMDDYY, MMDDYYB, MMDDYYC, MMDDYYD, MMDDYYN, MMDDYYP, MMDDYYS, MMYY, MMYYB, MMYYC, MMYYD, MMYYN, MMYYP, MMYYS, MONNAME, MONTH, MONYY, PDJULG, PDJULI, QTR, QTRR, WEEKDATE, WEEKDATX, WEEKDAY, WEEKU, WEEKV, WEEKW, WORDDATE, WORDDATX, YEAR, YYMM, YYMMDD, YYMMDDB, YYMMDDC, YYMMDDD, YYMMDDN, YYMMDDP, YYMMDDS, YYMMB, YYMMC, YYMMD, YYMMN, YYMMP, YYMMS, YYMON, YYQ, YYQB, YYQC, YYQD, YYQN, YYQP, YYQS, YYQR, YYQRB, YYQRC, YYQRD, YYQRN, YYQRP, YYQRS, IS8601DA.","Format",""
"AD0041A","41","*DT variable has missing SAS Date Format","*DT variables must have non-missing SAS Date Format.","Format",""
"AD0042","42","*TM does not have the ADaM required SAS time format","The SAS format listed in the dataset must be valid. Here is a list of SAS Time formats utilized in the rule algorithm: B8601LZ, B8601TM, B8601TZ, E8601LZ, E8601TM, E8601TZ, HHMM, HOUR, MMSS, TIME, TIMEAMPM, IS8601TM, IS8601TZ, TOD.","Format",""
"AD0042A","42","*TM variable has missing SAS Time Format","*TM variables must have non-missing SAS Time Format.","Format",""
"AD0043","43","*DTM does not have the ADaM required SAS Datetime format","The SAS format listed in the dataset must be valid. Here is a list of SAS Date formats utilized in the rule algorithm: B8601DT, B8601DZ, DATEAMPM, DATETIME, DTDATE, DTWKDATX, DTYEAR, DTYYQC, E8601DN, E8601DT, E8601DZ, MDYAMPM, TOD, IS8601DN, IS8601DT, IS8601DZ.","Format",""
"AD0043A","43","*DTM variable has missing SAS Datetime Format","*DTM variables must have non-missing SAS Datetime Format.","Format",""
"AD0044","44","*TM and its corresponding *DTM variable have different time values","When both time and datetime variables are collected on the same record for the same observation, the Time portion of the datetime variable should be equal to the Time variable itself.","Consistency",""
"AD0045","45","*DT and its corresponding *DTM variable have different date values","When both date and datetime variables are collected on the same record for the same observation, the Date portion of the datetime variable should be equal to the Date variable itself.","Consistency",""
"AD0046","46","*DY = 0","A variable with a suffix of DY (day) must not equal zero. Variables whose names end in DY are relative day variables. In ADaM as in the SDTM, there is no day 0. If there is a need to create a relative day variable that includes day 0, then its name must not end in DY.","Limit",""
"AD0047","47, 49, 50, 51, 52, 55, 71, 72, 88, 89, 90, 194, 195, 257, 260, 261, 262, 278, 620, 621, 623, 624, 625, 626, 627, 628, 629, 630, 631, 632, 633, 634, 635, 636, 637, 638, 639, 655, 656, 657, 671, 672, 685, 686, 689, 719, 720, 804, 814, 885, 886, 887, 888, 889, 890","Required variable is not present","Variables described in ADaM as Required must be included in the dataset.","Presence",""
"AD0048","48","*FL subject-population flag variable is not present","ADSL must have at least one variable that ends in FL because you need at least one population flag.","Presence",""
"AD0053","53","The combination of STUDYID and USUBJID value does not exist in the SDTM DM domain","The combination of Study Identifier (STUDYID) and Unique Subject Identifier (USUBJID) is not found in the SDTM Demographics domain. There must be traceability between ADaM and SDTM.","Cross-reference",""
"AD0054","54","USUBJID duplicate values are not allowed within a study","There should be only one record for a unique value of USUBJID per study in the ADSL dataset.","Consistency",""
"AD0058","58","*DT is not a numeric variable","The SAS TYPE for *DT variable must be equal Num.","Format",""
"AD0059","59, 716","*TM is not a numeric variable","The SAS TYPE for *TM variable must be equal Num.","Format",""
"AD0060","60","*DTM is not a numeric variable","The SAS TYPE for *DTM variable must be equal Num.","Format",""
"AD0061","61","SDTM.EX is present, but neither ADSL TRTSDT nor TRTSDTM are present","The presence of SDTM.EX (Exposure) domain implies that there should be a Treatment Start Date (TRTSDT) / Datetime (TRTSDTM) variable present in the ADaM data.","Presence",""
"AD0061A","365","SDTM.EX is present, but neither ADSL TRTEDT nor TRTEDTM are present","The presence of SDTM.EX (Exposure) domain implies that there should be a Treatment End Date (TRTEDT) / Datetime (TRTEDTM) variable present in the ADaM data. ADaM rule AD0061 corresponds to Start Date and Times. ADaM IG requires it if there is an investigational product.","Presence",""
"AD0064","64","TRTxxAN is present, but TRTxxA is not present","If Actual Treatment (TRTxxAN) numeric variable is present, there must be a corresponding Actual Treatment (TRTxxA) character variable.","Presence",""
"AD0066","66","TRxxPGyN is present, but TRxxPGy is not present","If Planned Pooled Treatment y for Period xx (TRxxPGyN) numeric variable is present, there must be a corresponding Planned Pooled Treatment y for Period xx (TRxxPGy) character variable.","Presence",""
"AD0070","70","TRxxAGyN is present, but TRxxAGy is not present","If Actual Pooled Treatment y for Period xx (TRxxAGyN) numeric variable is present, there must be a corresponding Actual Pooled Treatment y for Period xx (TRxxAGy) character variable.","Presence",""
"AD0075","75","TRTxxPN is present, but TRTxxP is not present","If the Planned Treatment (TRTxxPN) numeric variable is present, there must be a corresponding Planned Treatment (TRTxxP) character variable.","Presence",""
"AD0076B","76, 717","Inconsistent value for TRTxxPN","Within a study, all TRTxxPN values must be the same for each unique value of TRTxxP when the primary variable TRTxxP is populated. Considering only those rows on which both variables are populated.","Consistency",""
"AD0077B","77, 718","Inconsistent value for TRTxxP","Within a study, all TRTxxP values must be the same for each unique value of TRTxxPN when the primary variable TRTxxP is populated. Considering only those rows on which both variables are populated.","Consistency",""
"AD0078","78","TRTxxP is present, but TRxxSDT is not present for periods greater than 01","If Planned Treatment for Period xx (TRTxxP) is present, First Treatment date for period xx (TRxxSDT) must be present if there is more than one Treatment Period. When there is only 1 Treatment Period 01, TRTSDT is sufficient.","Presence",""
"AD0079","79","TRTxxP is present, but TRxxEDT is not present for periods greater than 01","If Planned Treatment for Period xx (TRTxxP) is present, Last Treatment Date for Period xx (TRxxEDT) must be present if there is more than one Treatment Period. When there is only 1 Treatment Period 01, TRTEDT is sufficient.","Presence",""
"AD0080","80","TRTxxA is present, but TRTxxP is not present","If Actual Treatment (TRTxxA) is present, its corresponding Planned Treatment (TRTxxP) must be present.","Presence",""
"AD0084","84","TRTEDT != Maximum TRxxEDT on this record","Date of Last Exposure to Treatment (TRTEDT) for this patient record should be equal to the max Last Treatment Date (TRxxEDT) among all Periods 01 thru xx.","Consistency",""
"AD0090","90, 581, 719","None of the subject-level or record-level treatment variables defined in the ADaMIG are present","At least 1 treatment variable is required in a BDS dataset. This requirement is satisfied by any of the subject-level (ARM, ACTARM, TRTxxP, TRTxxA, TRTSEQP, TRTSEQA, TRxxPGy, TRxxAGy, TSEQPGy, TSEQAGy) or record-level (TRTP, TRTA, TRTPGy, TRTAGy) treatment variables. One is allowed to use any treatment variable in analysis of BDS. Any subject-level treatment variable may be copied into the BDS dataset from ADSL.","Presence",""
"AD0092B","92, 721","Inconsistent value for TRTPN","Within a study, all TRTPN values must be the same for each unique value of TRTP when the primary variable TRTP is populated. Considering only those rows on which both variables are populated.","Consistency",""
"AD0093B","93, 722","Inconsistent value for TRTP","Within a study, all TRTP values must be the same for each unique value of TRTPN when the primary variable TRTP is populated. Considering only those rows on which both variables are populated.","Consistency",""
"AD0095B","95, 723","Inconsistent value for TRTAN","Within a study, all TRTAN values must be the same for each unique value of TRTA when the primary variable TRTA is populated. Considering only those rows on which both variables are populated.","Consistency",""
"AD0096B","96, 724","Inconsistent value for TRTA","Within a study, all TRTA values must be the same for each unique value of TRTAN when the primary variable TRTA is populated. Considering only those rows on which both variables are populated.","Consistency",""
"AD0097","97","TRTPGyN is present, but TRTPGy is not present","If Planned Pooled Treatment y (TRTPGyN) numeric variable is present, there must be a corresponding Planned Pooled Treatment y (TRTPGy) character variable.","Presence",""
"AD0098","98","*SDY is greater than *EDY","Any variable ending in SDY (Start day) must have a value less than or equal to its corresponding EDY (end day) value.","Consistency",""
"AD0099","99","*STDY is greater than *ENDY","Any variable ending in STDY (Start day) must have a value less than or equal to its corresponding ENDY (end day) value.","Consistency",""
"AD0102","102","There is no TRTxxP variable in ADSL for every unique xx value of APERIOD","The Analysis Period (APERIOD) values will be a number like 01. There must be a corresponding Planned Treatment for Period xx variable (like TRT01P) in ADSL dataset.","Cross-reference",""
"AD0103","103","There is no TRxxSDT variable in ADSL for every unique xx value of APERIOD","The Analysis Period (APERIOD) values will be a number like 01. There must be a corresponding Date of First Exposure in Period xx variable for this period (like TR01SDT) in ADSL dataset.","Cross-reference",""
"AD0104","104","There is no TRxxEDT variable in ADSL for every unique xx value of APERIOD","The Analysis Period (APERIOD) values will be a number like 01. There must be a corresponding Date of Last Exposure in Period xx variable for this period (like TR01EDT) in ADSL dataset.","Cross-reference",""
"AD0105B","105, 725","Inconsistent value for APERIODC","Within a study, all APERIODC values must be the same for each unique value of APERIOD when the primary variable APERIOD is populated.","Consistency",""
"AD0106B","106, 726","Inconsistent value for APERIOD","Within a study, all APERIOD values must be the same for each unique value of APERIODC when the primary variable APERIOD is populated. Considering only those rows on which both variables are populated.","Consistency",""
"AD0109B","109, 727","Inconsistent value for AVISITN","Within a study, all AVISITN values must be the same for each unique value group of [PARAMCD, AVISIT] when PARAMCD and primary variable AVISIT are populated. Considering only those rows on which both variables are populated.","Consistency",""
"AD0110B","110, 728","Inconsistent value for AVISIT","Within a study, all AVISIT values must be the same for each unique value group of [PARAMCD, AVISITN] when PARAMCD and primary variable AVISIT are populated. Considering only those rows on which both variables are populated.","Consistency",""
"AD0111","111","ARELTM is present, but ARELTMU is not present","When ARELTM is present, the Anchor Time variable and ARELTMU (Analysis Relative Time unit) must also be included in the dataset, and the anchor time variable must be identified in the metadata for ARELTM.","Presence",""
"AD0112","112, 114","Only one of these variables is populated: ARELTM, ARELTMU","If ARELTMU (Analysis Relative Time unit) or ARELTM (Analysis Relative Time) is populated, then both must be populated together.","Consistency",""
"AD0113","113","ARELTMU is present, but ARELTM is not present","When ARELTM is present, the anchor time variable and ARELTMU must also be included in the dataset, and the anchor time variable must be identified in the metadata for ARELTM.","Presence",""
"AD0117B","117, 791","Inconsistent value for ATPT","Within a study, all ATPT values must be the same for each unique value group of [PARAMCD, ATPTN] when PARAMCD and primary variable ATPT are populated. Considering only those rows on which both variables are populated.","Consistency",""
"AD0118B","118, 729","Inconsistent value for ATPTN","Within a study, all ATPTN values must be the same for each unique value group of [PARAMCD, ATPT] when PARAMCD and primary variable ATPT are populated. Considering only those rows on which both variables are populated.","Consistency",""
"AD0121","121","*SDT is greater than *EDT","""Any variable ending in SDT (Start Date) must have a value less than or equal to its corresponding EDT (End Date) value (e.g., ADSL - TRTSDT, TR01SDT, AP01SDT"," BDS - APERSDT).""","Consistency",""
"AD0122","122","*SDTM is greater than *EDTM","""Any variable ending in SDTM (Start Date Time) must have a value less than or equal to its corresponding EDTM (End Date Time) value (e.g., ADSL - TRTSDTM, TR01SDTM, AP01SDTM"," BDS - APERSDTM).""","Consistency",""
"AD0123","123","Inconsistent value for PARAMTYP","Within a study, all PARAMTYP values must be the same for each unique value of PARAMCD when PARAMCD is populated. If a PARAMCD is said to be derived, all instances must be derived. More than one parameter can be derived.","Consistency",""
"AD0124","124","Inconsistent value for PARCATy within a unique PARAMCD","Within a study, all PARCATy values must be the same for each unique value of PARAMCD when PARAMCD is populated. A Parameter can only be categorized once. However, that Category can be used across PARAMs.","Consistency",""
"AD0125B","125, 730","Inconsistent value for PARCATy","Within a study, all PARCATy values must be the same for each unique value of PARCATyN when both variables are populated.","Consistency",""
"AD0126B","126, 731","Inconsistent value for PARCATyN","Within a study, all PARCATyN values must be the same for each unique value of PARCATy when both variables are populated.","Consistency",""
"AD0127","127, 128","BASE or BASEC is populated for a unique USUBJID, PARAMCD, but no baseline record exists","Within a given Subject's PARAMCD, a baseline value is populated (either BASE or BASEC) and there is not at least one record in that group marked as the baseline (ABLFL = Y).","Presence",""
"AD0127A","127+, 128+","BASE or BASEC is present, but ABLFL is not present","ABLFL is required if BASE or BASEC is present in the dataset.","Presence",""
"AD0129","129, 732","Inconsistent value for BASE","Within a study, all BASE values must be the same for each unique value group of [PARAMCD, BASEC] when PARAMCD, BASE and BASEC are populated (ADaM IG: There must be a one-to-one map between BASE and BASEC within a given PARAM if BOTH are populated).","Consistency",""
"AD0130","130, 733","Inconsistent value for BASEC","Within a study, all BASEC values must be the same for each unique value group of [PARAMCD, BASE] when PARAMCD, BASE and BASEC are populated. (ADaM IG: There must be a one-to-one map between BASE and BASEC within a given PARAM if BOTH are populated).","Consistency",""
"AD0132","132","Calculation issue: R2BASE != AVAL / BASE","When all 3 variables are populated and BASE does not equal 0, Ratio to Base (R2BASE) must equal Analysis Value (AVAL) / Baseline Value (BASE). AD0132A will raise errors when BASE equals 0. AD0132B also complements this check.","Consistency",""
"AD0132A","132+","Calculation issue: BASE = 0, but R2BASE is populated","When baseline (BASE) equals 0, the Ratio to Baseline (R2BASE) should not be populated since you cannot divide by 0. AD0132 checks the RSBASE calculation is correct when BASE does not equal 0.","Consistency",""
"AD0132B","132+, 223+, 225+","Calculation issue: CHG, PCHG or R2BASE is populated, but AVAL and/or BASE are not present and populated","If any of CHG (change), PCHG (percent change), or R2BASE (ratio of Analysis Value to Base) is populated, the values necessary for its calculation must both be present and populated. CHG = AVAL - BASE, PCHG = (AVAL - BASE)/BASE * 100, R2BASE = AVAL / BASE. Once this issue is resolved, there is greater potential for rules AD0132, AD0225, AD0223 to fire.","Consistency",""
"AD0133","133","Calculation issue: R2AyLO != AVAL / AyLO","When all 3 variables are populated and AyLO does not equal 0, Ratio to AyLO (R2AyLO) must equal Analysis Value (AVAL) / Analysis Range y LO Value (AyLO).","Consistency",""
"AD0133A","133+","Calculation issue: R2AyLO is present, but AVAL and/or AyLO is not present","R2AyLO = AVAL / AyLO. therefore if R2AyLO is present, both AVAL and AyLO must be present for calculation consistency.","Presence",""
"AD0133B","133+","Calculation issue: R2AyLO is populated, but AVAL and/or AyLO are not populated","If R2AyLO is populated, the values necessary for its calculation must both be present and populated. R2AyLO = AVAL / AyLO. Once this issue is resolved, there is greater potential for AD0133 to fire.","Consistency",""
"AD0133C","133+","Calculation issue: AyLO = 0, but R2AyLO is populated","When Analysis Range Low (AyLO) equals 0, the Ratio to Analysis Range Low (R2AyLO) should not be populated since you cannot divide by 0. AD0133 checks the calculation is correct when AyLO does not equal 0.","Consistency",""
"AD0134","134","Calculation issue: R2AyHI != AVAL / AyHI","When all 3 variables are populated and AyHI does not equal 0, Ratio to AyHI (R2AyHI) must equal Analysis Value (AVAL) / Analysis Range y HI Value (AyHI).","Consistency",""
"AD0134A","134+","Calculation issue: R2AyHI is present, but AVAL and/or AyHI is not present","R2AyHI = AVAL / AyHI. Therefore, if R2AyHI is present, both AVAL and AyHI must be present for calculation consistency.","Presence",""
"AD0134B","134+","Calculation issue: R2AyHI is populated, but AVAL and/or AyHI are not populated","If R2AyHI is populated, the values necessary for its calculation must both be present and populated. R2AyHI = AVAL / AyHI. Once this issue is resolved, there is greater potential for AD0134 to fire.","Consistency",""
"AD0134C","134+","Calculation issue: AyHI = 0, but R2AyHI is populated","When Analysis Range High (AyHI) = 0, the Ratio to Analysis Range High (R2AyHI) should not be populated since you cannot divide by 0. AD0134 checks the calculation is correct when AyLO != '0'.","Consistency",""
"AD0135B","135, 736","Inconsistent value for SHIFTy","Within a study, all SHIFTy values must be the same for each unique value of SHIFTyN when PARAMCD, SHIFTy, and SHIFTyN variables are populated.","Consistency",""
"AD0136B","136, 737","Inconsistent value for SHIFTyN","Within a study, all SHIFTyN values must be the same for each unique value of SHIFTy when PARAMCD, SHIFTy, and SHIFTyN variables are populated.","Consistency",""
"AD0137","137","CRITyFL is populated, but CRITy is not populated","When CRITyFL (Analysis Criterion Flag) is populated, it's corresponding parent Analysis Criterion y must be populated.","Consistency",""
"AD0141","141, 738","Inconsistent value for PARAM within a unique PARAMCD","Within a study, All PARAM values must be the same for each unique value of PARAMCD when both PARAMCD and PARAM are populated.","Consistency",""
"AD0142","142, 739","Inconsistent value for PARAMCD within a unique PARAM","Within a study, All PARAMCD values must be the same for each unique value of PARAM when both PARAMCD and PARAM are populated.","Consistency",""
"AD0143","143, 144, 145","Illegal PARAMCD value","PARAMCD value must be a max of 8 characters, start with a letter A-Z or underscore, and not contain anything other than letters, numbers, or underscore (_).","Format",""
"AD0146B","146, 740","Inconsistent value for PARAM","Within a study, all PARAM values must be the same for each unique value of PARAMN when both variables PARAM and PARAMN are populated.","Consistency",""
"AD0147B","147, 741","Inconsistent value for PARAMN","Within a study, all PARAMN values must be the same for each unique value of PARAM when both variables PARAM and PARAMN are populated.","Consistency",""
"AD0149B","149, 742","Inconsistent value for AVALC","Within a study and a given value of PARAMCD when both AVAL and AVALC are populated, then all AVALC values must be the same for each unique value of AVAL creating a one-to-one mapping. Considering only those rows on which both variables are populated.","Consistency",""
"AD0150","150, 743","Inconsistent value for AVAL","Within a study and a given value of PARAMCD when both AVAL and AVALC are populated, then all AVAL values must be the same for each unique value of AVALC creating a one-to-one mapping.","Consistency",""
"AD0151","151","Inconsistent value for CRITy within a unique PARAMCD","Within a study, all CRITy values must be the same for each unique value of PARAMCD when PARAMCD and CRITy are populated. Example: PARAMCD = SYSBP (mm Hg), CRIT1 = SYSBP >160.","Consistency",""
"AD0152","152, 181, 695, 698, 789","ABLFL = Y, but BASE != AVAL","If the record is flagged as the baseline (ABLFL = Y), then the baseline Value (BASE) must equal the Analysis Value (AVAL).","Consistency",""
"AD0154","154, 155","Multiple baseline records exist for a unique USUBJID, PARAMCD, BASETYPE","For a set of [Subject (USUBJID), Parameter (PARAMCD), baseline type (BASETYPE)] only one record can be the actual baseline value, marked by ABLFL = Y.","Consistency",""
"AD0156","156, 335, 895","CRITyFL is present, but CRITy is not present","If Criterion y Flag (CRITyFL) variable is present, there must also be a corresponding Criterion y (CRITy) variable.","Presence",""
"AD0157","157, 336","CRITy is present, but CRITyFL is not present","If Criterion y (CRITy) variable is present, there must also be a corresponding Criterion y Flag (CRITyFL) variable.","Presence",""
"AD0159","159+","Calculation issue: AWTDIFF is populated, but AWTARGET and/or one of [ADY, ARELTM] are not both present and populated","If AWTDIFF (Analysis Window Diff from Target) is populated AWTARGET (Analysis Window Target) must be populated. AWTDIFF = Absolute value of (ADY or ARELTM) - AWTARGET. Note: A future rule should validate that the calculation is correct. Rule enhanced by Pinnacle 21 to include ADY and ARELTM. If only AWTDIFF is present and populated, this rule will fire even if some or all other variables are not present. This may fire simultaneously with AD0158.","Consistency",""
"AD0160","160, 896","AWU is present, but both AWLO and AWHI are not present","If Analysis Window Unit (AWU) variable is present, then Analysis Window Beginning Timepoint (AWLO) and (Analysis Window Ending Timepoint) AWHI variables must be present.","Presence",""
"AD0163","163","BTOXGR is present, but ATOXGR is not present","If Baseline Toxicity Grade (BTOXGR) variable is present, then Analysis Toxicity Grade (ATOXGR) and Baseline Record Flag (ABLFL) variables must be present.","Presence",""
"AD0164","164","BTOXGR is present, but ABLFL is not present","If Baseline Toxicity Grade (BTOXGR) variable is present, then Analysis Toxicity Grade (ATOXGR) and Baseline Record Flag (ABLFL) variables must be present.","Presence",""
"AD0165","165, 182, 744","ABLFL = Y, but BTOXGR != ATOXGR","If the record is flagged as the baseline (ABLFL = Y), then the baseline toxicity grade (BTOXGR) value must equal the analysis toxicity grade (ATOXGR) value.","Consistency",""
"AD0166","166","BNRIND is present, but ANRIND is not present","If Baseline Reference Range Indicator (BNRIND) variable is present, then Analysis Reference Range Indicator (ANRIND) and Baseline Record Flag (ABLFL) variables must be present.","Presence",""
"AD0167","167","BNRIND is present, but ABLFL is not present","If Baseline Reference Range Indicator (BNRIND) variable is present, then Analysis Reference Range Indicator (ANRIND) and Baseline Record Flag (ABLFL) variables must be present.","Presence",""
"AD0168","168, 183, 699, 745","ABLFL = Y, but BNRIND != ANRIND","If the record is flagged as the baseline (ABLFL = Y), then the baseline normal range indicator (BNRIND) value must equal the analysis normal range indicator (ANRIND) value.","Consistency",""
"AD0169","169","CNSR is not an integer >= 0","Censor (CNSR) value must be an integer. Defines whether the event was censored (period of observation truncated prior to event being observed). It is strongly recommended to use 0 as an event indicator and positive integers as censoring indicators. It is also recommended that unique positive integers be used to indicate coded descriptions of censoring reasons. CNSR is required for time-to-event parameters.","Limit",""
"AD0176","176, 409, 410, 494","ABLFL value is not Y or null","Analysis Baseline Flag character (ABLFL) must be Y or null. For parameter-level and record-level character population flag variables: Y = yes (included). Null values are allowed.","Terminology",""
"AD0178","178, 413, 414, 493","ANLzzFL value is not Y or null","A variable of form ANLzzFL (analysis record flag) must be Y or null.","Terminology",""
"AD0196","196, 197, 811","Required Variable value is null","Unlike SDTM, only some of ADaM Required variables (where Core attribute is 'Req') must be populated. CDISC ADaM rules affirm that PARAM and PARAMCD must be populated, while others are populated as appropriate. Known Exceptions: TRTP, TRTxxP, AGE, AGEU, RACE, SUBJID, AESER.","Presence",""
"AD0198","198","Neither AVAL nor AVALC are present in dataset","At least one Analysis Value (numeric or character) variable must be present in BDS datasets.","Presence",""
"AD0201","201","TRTAGyN is present, but TRTAGy is not present","If Actual Pooled Treatment y (TRTAGyN) numeric variable is present, there must be a corresponding Planned Pooled Treatment y (TRTPGy) character variable.","Presence",""
"AD0204","204","For the same USUBJID, the ADSL.AGE != DM.AGE","The same subject in ADSL and DM must have the same value for Age (AGE). There must be traceability between ADaM and SDTM.","Cross-reference",""
"AD0205","205","For the same USUBJID, the ADSL.AGEU != DM.AGEU","The same subject in ADSL and DM must have the same value for Age Unit (AGEU). There must be traceability between ADaM and SDTM.","Cross-reference",""
"AD0206","206","For the same USUBJID, the ADSL.SEX != DM.SEX","The same subject in ADSL and DM must have the same value for Sex (SEX). There must be traceability between ADaM and SDTM.","Cross-reference",""
"AD0207","207","For the same USUBJID, the ADSL.RACE != DM.RACE","The same subject in ADSL and DM must have the same value for Race (RACE). There must be traceability between ADaM and SDTM.","Cross-reference",""
"AD0208","208","For the same USUBJID, the ADSL.SUBJID != DM.SUBJID","The same subject in ADSL and DM must have the same value for Subject ID (SUBJID). There must be traceability between ADaM and SDTM.","Cross-reference",""
"AD0209","209","For the same USUBJID, the ADSL.SITEID != DM.SITEID","The same subject in ADSL and DM must have the same value for Site ID (SITEID). There must be traceability between ADaM and SDTM.","Cross-reference",""
"AD0210","210","For the same USUBJID, the ADSL.ARM != DM.ARM","The same subject in ADSL and DM must have the same value for Arm (ARM). There must be traceability between ADaM and SDTM.","Cross-reference",""
"AD0211","211, 409, 410","ABLFN value is not 1 or null","ABLFN (Analysis Baseline Flag Numeric) must be 1 or null. For Parameter-Level and Record-Level Numeric Population Flag variables: 1 = yes (included). Null values are allowed.","Terminology",""
"AD0212","212, 413, 414","ANLzzFN value is not 1 or null","ANLzzFN (Analyzed Record Flag zz Numeric) must be 1 or null. For Parameter-Level and Record-Level Numeric Population Flag variables: 1 = yes (included). Null values are allowed.","Terminology",""
"AD0221","221, 222, 224, 226, 583, 747, 748, 749, 750, 751","Inconsistent value for *CATy","Within a study, all Category y (*CATy) variable values must be the same for each unique value of the variable it categorizes within a PARAMCD. [AVAL:AVALCATy], [AVALC:AVALCATy], [BASE:BASECATy], [BASEC:BASECATy], [CHG:CHGCATy], [PCHG:PCHGCATy], [BCHG:BCHGCATy]. A Category may be the same across values.","Consistency",""
"AD0223","223, 700","Calculation issue: CHG != AVAL - BASE","When all 3 variables are populated, Change from Baseline (CHG) must equal Analysis Value (AVAL) minus Baseline Value (BASE).","Consistency",""
"AD0225","225, 701","Calculation issue: PCHG != (AVAL - BASE)/BASE * 100","When all 3 variables are populated and base <> 0, Percent Change from Baseline (PCHG) must equal the difference of Analysis Value (AVAL) minus Baseline Value (BASE) divided by the Baseline Value (BASE), expressed as a percentage. AD0225A will raise errors when BASE = 0. AD0132B also complements this check.","Consistency",""
"AD0225A","225+","Calculation issue: BASE = 0, but PCHG is populated","When Baseline (BASE) equals 0, the Percent Change from Baseline (PCHG) should not be populated since you cannot divide by 0. AD0225 checks the PCHG calculation is correct when BASE does not equal 0. AD0132B also complements this rule.","Consistency",""
"AD0227B","227, 752","Inconsistent value for TRTSEQP","Within a study, all Planned Sequence of Treatments (TRTSEQP) variable values must be the same for each unique value of Planned Sequence of Treatments (N) (TRTSEQPN) when both variables are populated.","Consistency",""
"AD0228B","228, 753","Inconsistent value for TRTSEQPN","Within a study, all Planned Sequence of Treatments (N) (TRTSEQPN) variable values must be the same for each unique value of Planned Sequence of Treatments (TRTSEQP) when both variables are populated.","Consistency",""
"AD0229B","229, 754","Inconsistent value for TRTSEQA","Within a study, all Actual Sequence of Treatment (TRTSEQA) variable values must be the same for each unique value of Actual Sequence of Treatments (N) (TRTSEQAN) when both variables are populated.","Consistency",""
"AD0230B","230, 755","Inconsistent value for TRTSEQAN","Within a study, all Actual Sequence of Treatments (N) (TRTSEQAN) variable values must be the same for each unique value of Actual Sequence of Treatment (TRTSEQA) variable when both variables are populated.","Consistency",""
"AD0231","231, 756","Inconsistent value for TRxxPGy within a unique TRTxxP","Within a study, all Planned Pooled Treatment y for Period xx (TRxxPGy) variable values must be the same for each unique value of Planned Treatment for Period xx (TRTxxP) variable when TRTxxP is populated. TRxxPGy is a more general pooled treatment for TRTxxP, therefore it may be used for many TRTxxP.","Consistency",""
"AD0232B","232, 757","Inconsistent value for TRxxPGy","Within a study, all Planned Pooled Treatment y for Period xx (TRxxPGy) variable values must be the same for each unique value of Planned Pooled Trt y for Period xx (N) (TRxxPGyN) variable when both variables are populated. Analogous rule for AD0235.","Consistency",""
"AD0233","233, 758","Inconsistent value for TRxxPGyN","Within a study, all Planned Pooled Trt y for Period xx (N) (TRxxPGyN) variable values must be the same for each unique value of Planned Pooled Treatment y for Period xx (TRxxPGy) variable when the primary variable TRxxPGy is populated. analogous rule for AD0236.","Consistency",""
"AD0234","234, 759","Inconsistent value for TRxxAGy within a unique TRTxxA","Within a study, all Actual Pooled Treatment y for Period xx (TRxxAGy) variable values must be the same for each unique value of Actual Treatment for Period xx (TRTxxA) when TRTxxA is populated. TRxxAGy is a more general pooled treatment for TRTxxA, therefore it may be used for many TRTxxA.","Consistency",""
"AD0235B","235, 760","Inconsistent value for TRxxAGy","Within a study, all Actual Pooled Treatment y for Period xx (TRxxAGy) variable values must be the same for each unique value of Actual Pooled Trt y for Period xx (N) (TRxxAGyN) variable when both variables are populated. Analogous rule for AD0232.","Consistency",""
"AD0236B","236, 761","Inconsistent value for TRxxAGyN","Within a study, all Actual Pooled Trt y for Period xx (N) (TRxxAGyN) variable values must be the same for each unique value of Actual Pooled Treatment y for Period xx (TRxxAGy) variable when both variables are populated. Analogous rule for AD0233.","Consistency",""
"AD0237B","237, 762","Inconsistent value for TRTPGy","Within a study, all Planned Pooled Treatment y (TRTPGy) variable values must be the same for each unique value of Planned Pooled Treatment y (N) (TRTPGyN) variable when both variables are populated. Analogous rule for AD0240.","Consistency",""
"AD0238B","238, 763","Inconsistent value for TRTPGyN","Within a study, all Planned Pooled Treatment y (N) (TRTPGyN) variable values must be the same for each unique value of  Planned Pooled Treatment y (TRTPGy) variable when both variables are populated. Analogous rule for AD0241.","Consistency",""
"AD0239","239","TRTPGy and TRTA are present, but TRTAGy is not present","If both actual treatment (TRTA) and Planned Pooled Treatment y (TRTPGy) are present, then Actual Pooled Treatment y (TRTAGy) variable must be present.","Presence",""
"AD0239A","239, 368, 764","TRxxPGy and TRTxxA are present, but TRxxAGy is not present","For a given period xx, If both Actual Treatment for Period xx (TRTxxA) and Planned Pooled Treatment y for Period xx (TRxxPGy) variables are present, then Actual Pooled Treatment y for Period xx (TRxxAGy) variable must be present.","Presence",""
"AD0240B","240, 765","Inconsistent value for TRTAGy","Within a study, all Actual Pooled Treatment y (TRTAGy) variable values must be the same for each unique value of Actual Pooled Treatment y (N) (TRTAGyN) variable when both variables are populated. Analogous rule for AD0237.","Consistency",""
"AD0241B","241, 766","Inconsistent value for TRTAGyN","Within a study, all Actual Pooled Treatment y (N) (TRTAGyN) variable values must be the same for each unique value of Actual Pooled Treatment y (TRTAGy) variable when both variables are populated. Analogous rule for AD0238.","Consistency",""
"AD0242B","242, 767","Inconsistent value for TRTxxAN","Within a study, all Actual Treatment for Period xx (N) (TRTxxAN) variable values must be the same for each unique value of Actual Treatment for Period xx (TRTxxA) variable when both variables are populated.","Consistency",""
"AD0243B","243, 768","Inconsistent value for TRTxxA","Within a study, all Actual Treatment for Period xx (TRTxxA) variable values must be the same for each unique value of Actual Treatment for Period xx (N) (TRTxxAN) variable when both variables are populated.","Consistency",""
"AD0245","245","CNSR is present, but STARTDT is not present","When Censor (CNSR) variable is present, the Time-to-Event Origin Date for Subject (STARTDT) and one of Analysis Date (ADT) or Analysis Datetime (ADTM) variables must be included in the dataset. In Time to Event studies, the basis of analysis is the time from a defined starting point to the time of occurrence of the event of interest.","Presence",""
"AD0246","246","CNSR is present, but both ADT and ADTM are not present","When Censor (CNSR) variable is present, the Time-to-Event Origin Date for Subject (STARTDT) and one of Analysis Date (ADT) or Analysis Datetime (ADTM) variables must be included in the dataset. In Time to Event studies, the basis of analysis is the time from a defined starting point to the time of occurrence of the event of interest.","Presence",""
"AD0247","247, 248, 249","CNSR is populated, but AVAL, STARTDT, and one of [ADT, ADTM] are not populated","When an event is censored, 3 other variables must be populated. Censor (CNSR) variable qualifies the Analysis Value (AVAL) variable. ADT and ADTM variables are the Analysis Date and Time of event or censoring associated with AVAL. Origin Date for Subject (STARTDT) variable is the original date of risk for the time-to-event analysis. This is generally the time at which a subject is first at risk for the event of interest evaluation.","Consistency",""
"AD0250","250, 251","EVNTDESC and/or CNSDTDSC is present, but CNSR is not present","In Time to Event studies, Event or Censoring Description (EVNTDESC) variable is the description of the event of interest or an event that warrants censoring. Therefore, Censor (CNSR) variable should be present. Censor Date Description (CNSDTDSC) variable describes the circumstance represented by the censoring date if different from the event date that warrants censoring. If present, CNSR must be present. Note that adding CNSDTDSC provides additional information when there is a difference between the event date that warrants censoring and the actual date of censoring. If the event that warrants censoring is the same as the onset date of the event that represents the censoring date, then the CNSDTDSC column is not needed in the analysis dataset.","Presence",""
"AD0251","251","CNSDTDSC is present, but CNSR is not present","In Time to Event studies, Censor Date Description (CNSDTDSC) variable describes the circumstance represented by the censoring date if different from the event date that warrants censoring. If present, Censor (CNSR) variable must be present. Note that adding CNSDTDSC provides additional information when there is a difference between the event date that warrants censoring and the actual date of censoring. If the event that warrants censoring is the same as the onset date of the event that represents the censoring date, then the CNSDTDSC column is not needed in the analysis dataset.","Presence",""
"AD0252","252, 254, 622, 653, 654","Variable present in dataset is prohibited for use in ADaM","Variables described in ADaM IG as inappropriate for usage must be not included in the dataset. i.e., for ADAE, there is no need for AVAL, AVALC and Parameter variables.","Presence",""
"AD0253","253-","Record key from SDTM AE is not traceable to ADaM ADAE (not enough ADAE recs)","Adverse Events specified in SDTM AE domain must be traceable to ADaM ADAE dataset based on Study Identifier (STUDYID), Unique Subject Identifier (USUBJID) and Sequence Number (AESEQ) variables. The ADAE structure for the standard adverse event safety dataset must have at least one record per each AE recorded in SDTM AE domain. However, subjects not analyzed (e.g., Screen Failures) who have AEs recorded in SDTM AE, but not in ADSL do not need to be included in ADAE. Currently, this check does not take into account the latter. Please check your ADSL file to see if these issues are for Screen Failures.","Cross-reference",""
"AD0256","256","USUBJID value does not exist in the ADaM ADSL domain","All subjects included into ADaM datasets should be present in ADSL dataset and use the same Unique Subject Identifier (USUBJID).","Cross-reference",""
"AD0258","258, 898","Record key from ADaM ADAE is not traceable to SDTM.AE (extra ADAE recs)","Adverse Events specified in ADAE dataset must be traceable to the SDTM AE domain based on Study Identifier (STUDYID), Unique Subject Identifier (USUBJID) and Sequence Number (AESEQ) variables. ADaM ADAE dataset should be validated with SDTM AE domain to facility this check. There must be traceability between ADaM and SDTM study data. This usually refers to mapping issues since an ADaM ADAE records must have been born from SDTM AE domain.","Cross-reference",""
"AD0269","269, 270, 271, 363, 619","Variable flag value is not Y or null","A Treatment Flag variable must have a value that is Y or null. Examples of such Flags variables in ADaM-IG 1.2 are Treatment Emergent Analysis Flag (TRTEMFL), Pre-treatment Flag (PREFL), On Treatment Record Flag (ONTRTFL), Follow-up Flag (FUPFL), and Last Value On Treatment Record Flag (LVOTFL).","Terminology",""
"AD0272","272","Variable flag value is not Y or null","1st Occurrence * Flag (AOCC*FL) variable values must be Y or null.","Terminology",""
"AD0273","273","Illegal variable name: zz is not in [01-99] for AOCCzzFL","For additional Flag (AOCCzzFL) variables representing the 1st Occurrence of an analysis event or datapoint, zz must be nth flag variable (01 to 99). The main purpose of these flags is to facilitate data point traceability between records in the dataset and unique counts in the summary displays. In addition, if a Time to Event (TTE) Analysis dataset is built off of Adverse Events, the flags provide a crucial link between the summary records in the TTE BDS and the source of the records in ADAE. If the producer of the ADAE dataset has standard programs in place to summarize unique counts of events, then they may choose not to create these flags.","Format",""
"AD0279","279, 282","Variable value != 1, 2, 3, or null","Severity/Intensity (N) (AESEVN) and Analysis Severity/Intensity (N) (ASEVN) variables must have values in [1, 2, 3] when populated. AESEVN can be null. ASEVN cannot be null.","Terminology",""
"AD0280B","280, 769","Inconsistent value for AESEV","Across studies, all Severity/Intensity (AESEV) variable values must be the same for each unique value of Severity/Intensity (N) (AESEVN) variable when both variables are populated.","Consistency",""
"AD0281B","281, 770","Inconsistent value for AESEVN","Across studies, all Severity/Intensity (N) (AESEVN) variable must be the same for each unique value of Severity/Intensity (AESEV) variable when both variables are populated.","Consistency",""
"AD0283B","283, 771","Inconsistent value for ASEV","Across studies, all Analysis Severity/Intensity (ASEV) variable values must be the same for each unique value of Analysis Severity/Intensity (N) (ASEVN) variable when both variables are populated.","Consistency",""
"AD0284B","284, 772","Inconsistent value for ASEVN","Across studies, all Analysis Severity/Intensity (N) (ASEVN) variable values must be the same for each unique value of Analysis Severity/Intensity (ASEV) variable when both variables are populated.","Consistency",""
"AD0287B","287, 775","Inconsistent value for AEREL","Across studies, all Causality (AEREL) variable values must be the same for each unique value of Causality (N) (AERELN) variable when both variables are populated.","Consistency",""
"AD0288B","288, 776","Inconsistent value for AERELN","Across studies, all Causality (N) (AERELN) variable values must be the same for each unique value of Causality (AEREL) variable when both variables are populated.","Consistency",""
"AD0289B","289, 777","Inconsistent value for AREL","Across studies, all Analysis Causality (AREL) variable values must be the same for each unique value of Analysis Causality (N) (ARELN) variable when both variables are populated.","Consistency",""
"AD0290B","290, 778","Inconsistent value for ARELN","Across studies, all Analysis Causality (N) (ARELN) variable values must be the same for each unique value of Analysis Causality (AREL) variable when both variables are populated.","Consistency",""
"AD0293B","293, 781","Inconsistent value for AETOXGR","Across studies, all Standard Toxicity Grade (AETOXGR) variable values must be the same for each unique value of Standard Toxicity Grade (N) (AETOXGRN) variable when both variables are populated.","Consistency",""
"AD0294B","294, 782","Inconsistent value for AETOXGRN","Across studies, all Standard Toxicity Grade (N) (AETOXGRN) variable values must be the same for each unique value of Standard Toxicity Grade (AETOXGR) variable when both variables are populated.","Consistency",""
"AD0295B","295, 783","Inconsistent value for ATOXGR","Across studies, all Analysis Toxicity Grade (ATOXGR) variable values must be the same for each unique value of Analysis Toxicity Grade (N) (ATOXGRN) variable when both variables are populated.","Consistency",""
"AD0296B","296, 784","Inconsistent value for ATOXGRN","Across studies, all Analysis Toxicity Grade (N) (ATOXGRN) variable values must be the same for each unique value of Analysis Toxicity Grade (ATOXGR) variable when both variables are populated.","Consistency",""
"AD0299","299, 300, 301, 302","Illegal variable name: zz is not in [01-99] for SMQzz(NAM, CD, SC, SCN)","For Standardized MedDRA Query Variables of Name, Code and Scope(N), zz must be the ordered SMQ of interest (01 to 99). This ordering can be based on importance or some other sponsor-defined criteria. It is recommended that the ordering be consistent across studies within a development program.","Format",""
"AD0303","303","Illegal variable name: zz is not in [01-99] for CQzzNAM","For Customized MedDRA Query Name (SMQzzNAM) variables , zz must be the ordered CQ of interest (01 to 99). This ordering can be based on importance or some other sponsor-defined criteria. It is recommended that the ordering be consistent across studies within a development program.","Format",""
"AD0304","304, 305, 306, 307, 308, 309","Only some of these variables are present and populated: SMQzzNAM, SMQzzCD, SMQzzSC","If any of SMQ Name (SMQzzNAM), SMQ Code (SMQzzCD) or SMQ Scope (SMQzzSC) variable is populated, then all of these MedDRA SMQ variables must be populated together.","Consistency",""
"AD0310B","310, 787","Inconsistent value for SMQzzSC","Across studies, all SMQ Scope (SMQzzSC ) variable values must be the same for each unique value of SMQ Scope (N) (SMQzzSCN) variable when both variables are populated. The usual mapping is BROAD=1, NARROW=2.","Consistency",""
"AD0311B","311, 788","Inconsistent value for SMQzzSCN","Across studies, all SMQ Scope (N) (SMQzzSCN) variable values must be the same for each unique value of SMQ Scope (SMQzzSC ) variable when both variables are populated. The usual mapping is BROAD=1, NARROW=2.","Consistency",""
"AD0312","312","SMQzzSC value != BROAD, NARROW or null","Standardized MedDRA Query Scope (SMQzzSC) variable value must be BROAD, NARROW, or null. The search strategy for SMQs can be narrow or broad. The preferred terms that are narrow in scope have high specificity for identifying events of interest while the broad terms have high sensitivity. By definition, all narrow terms are also considered within the broad score. Therefore, to summarize all broad terms, terms with either narrow OR broad would be considered. Will be null for terms that do not meet the criteria. Conditional on whether SMQ analysis is done.","Terminology",""
"AD0313","313","SMQzzSCN value != 1, 2 or null","Standardized MedDRA Query Scope Numeric (SMQzzSCN) variable value must be 1 (BROAD), 2 (NARROW), or null. The search strategy for SMQs can be narrow or broad. The preferred terms that are narrow in scope have high specificity for identifying events of interest while the broad terms have high sensitivity. By definition, all narrow terms are also considered within the broad score. Therefore, to summarize all broad terms, terms with either narrow OR broad would be considered. Will be null for terms that do not meet the criteria. Conditional on whether SMQ analysis is done.","Terminology",""
"AD0320","320","Non-standard dataset label","The dataset label for a dataset named 'ADSL' must be 'Subject-Level Analysis Dataset'.","Metadata",""
"AD0320B","","Non-standard dataset label","The dataset label for a dataset named 'ADDL' must be 'Device-level Analysis Dataset'.","Metadata",""
"AD0322","322","Inconsistent value for TRTPGy within a given TRTP","Within a given value of Planned Treatment (TRTP) variable, there can only be one unique value of Planned Pooled Treatment y (TRTPGy) variable.","Consistency",""
"AD0323","323","Inconsistent value for APHASEN","Within a Study, all Phase (N) (APHASEN) variable values must be the same for each unique value of Phase (APHASE) variable when the primary variable APHASE is populated.","Consistency",""
"AD0324","324","Inconsistent value for APHASE","Within a Study, all Phase (APHASE) variable values must be the same for each unique value of Phase (N) (APHASEN) variable when the primary variable APHASEN is populated.","Consistency",""
"AD0325","325","Inconsistent value for ASPER","Within a Study and a Period, all Subperiod within Period (ASPER) variable values must be the same for each unique value of Subperiod within Period (C) (ASPERC) variable when the primary variable ASPERC is populated.","Consistency",""
"AD0326","326","Inconsistent value for ASPERC","Within a Study and a Period, all Subperiod within Period (C) (ASPERC) variable values must be the same for each unique value of Subperiod within Period (ASPER) variable when the primary variable ASPER is populated.","Consistency",""
"AD0327","327","Inconsistent value for AVALCAT*","Within a Study and a Parameter, all Analysis Value Category y (AVALCATy) variable values must be the same for each unique value of Analysis Value Category y (N) (AVALCAyN) variable when the primary variable AVALCAy is populated.","Consistency",""
"AD0328","328","Inconsistent value for AVALCAyN","Within a Study and a Parameter, all Analysis Value Category y (N) (AVALCAyN) variable values must be the same for each unique value of Analysis Value Category y (AVALCATy) variable when the primary variable AVALCATy is populated.","Consistency",""
"AD0329","329","Inconsistent value for BASECAT*","Within a Study and a Parameter, all Baseline Category y (BASECATy) variable values must be the same for each unique value of Baseline Category y (N) (BASECAyN) variable when the primary variable BASECATy is populated.","Consistency",""
"AD0330","330","Inconsistent value for BASECAyN","Within a Study and a Parameter, all Baseline Category y (N) (BASECAyN) variable values must be the same for each unique value of Baseline Category y (BASECATy) variable when the primary variable BASECATy is populated.","Consistency",""
"AD0331","331","Inconsistent value for CHGCAT*","Within a Study and a Parameter, all Change from Baseline Category y (CHGCATy) variable values must be the same for each unique value of Change from Baseline Category y (N) (CHGCATyN) variable when variable CHGCATyN is populated.","Consistency",""
"AD0332","332","Inconsistent value for CHGCAT*N","Within a Study and a Parameter, all Change from Baseline Category y (N) (CHGCATyN) variable values must be the same for each unique value of Change from Baseline Category y (CHGCATy) variable when the primary variable CHGCATy is populated.","Consistency",""
"AD0333","333","Inconsistent value for PCHGCAT*","Within a Study and a Parameter, all Percent Chg from Baseline Category y (PCHGCATy) variable values must be the same for each unique value of Percent Chg from Baseline Category y (N) (PCHGCAyN) variable when variable PCHGCAyN is populated.","Consistency",""
"AD0334","334","Inconsistent value for PCHGCAyN","Within a Study and a Parameter, all Percent Chg from Baseline Category y (N) (PCHGCAyN) variable values must be the same for each unique value of Percent Chg from Baseline Category y (PCHGCATy) when the primary variable PCHGCATy is populated.","Consistency",""
"AD0337","337","MCRITy variable is not present when MCRITyML is present","If Multi-Response Criterion y Evaluation (MCRITyML) flag variable is present, there must also be a corresponding Analysis Multi-Response Criterion y (MCRITy) variable.","Presence",""
"AD0338","338","MCRITyML is not present when MCRITy is present","If Analysis Multi-Response Criterion y (MCRITy) variable is present, there must also be a corresponding Multi-Response Criterion y Evaluation (MCRITyML) flag variable.","Presence",""
"AD0339","339","MCRITy is not populated when MCRITyML is populated","When Multi-Response Criterion y Evaluation (MCRITyML) variable value is populated, then its corresponding Analysis Multi-Response Criterion y (MCRITy) variable must be also populated.","Consistency",""
"AD0340","340","Inconsistent value for MCRITyML","Within a Study and a Parameter, all Multi-Response Criterion y Evaluation (MCRITyML) variable values must be the same for each unique value of Multi-Response Criterion y Eval (N) (MCRITyMN) variable when variable MCRITyMN is populated.","Consistency",""
"AD0341","341","Inconsistent value for MCRITyMN","Within a Study and a Parameter, all Multi-Response Criterion y Eval (N) (MCRITyMN) variable values must be the same for each unique value of Multi-Response Criterion y Evaluation (MCRITyML) variable when the primary variable MCRITyML is populated.","Consistency",""
"AD0342","342","Inconsistent value for ANRLO","Within a Study and a Parameter, all Analysis Normal Range Lower Limit (ANRLO) variable values must be the same for each unique value of Analysis Normal Range Lower Limit (C) (ANRLOC) variable when variable ANRLOC is populated.","Consistency",""
"AD0343","343","Inconsistent value for ANRLOC","Within a Study and a Parameter, all Analysis Normal Range Lower Limit (C) (ANRLOC) variable values must be the same for each unique value of Analysis Normal Range Lower Limit (ANRLO) variable when variable ANRLO is populated.","Consistency",""
"AD0344","344","Inconsistent value for ANRHI","Within a Study and a Parameter, all Analysis Normal Range Upper Limit (ANRHI) variable values must be the same for each unique value of Analysis Normal Range Upper Limit (C) (ANRHIC) variable when variable ANRHIC is populated.","Consistency",""
"AD0345","345","Inconsistent value for ANRHIC","Within a Study and a Parameter, all Analysis Normal Range Upper Limit (C) (ANRHIC) variable values must be the same for each unique value of Analysis Normal Range Upper Limit (ANRHI) when variable ANRHI is populated.","Consistency",""
"AD0346","346","AyLO variable is not present when R2AyLO is present","If Ratio to Analysis Range y Lower Limit (R2AyLO) flag variable is present, there must also be a corresponding Analysis Range y Lower Limit (AyLO) variable.","Presence",""
"AD0347","347","Inconsistent value for AyLO","Within a Study and a Parameter, all Analysis Range y Lower Limit( AyLO) variable values must be the same for each unique value of Analysis Range y Lower Limit (C) (AyLOC) variable when variable AyLOC is populated.","Consistency",""
"AD0348","348","Inconsistent value for AyLOC","Within a Study and a Parameter, all Analysis Range y Lower Limit (C) (AyLOC) variable values must be the same for each unique value of Analysis Range y Lower Limit (AyLO) variable when variable AyLO is populated.","Consistency",""
"AD0349","349","AyHI variable is not present when R2AyHI is present","If Ratio to Analysis Range y Upper Limit (R2AyHI) variable is present, there must also be a corresponding Analysis Range y Upper Limit (AyHI) variable.","Presence",""
"AD0350","350","Inconsistent value for AyHI","Within a Study and a Parameter, all Analysis Range y Upper Limit (AyHI) variable values must be the same for each unique value of Analysis Range y Upper Limit (C) (AyHIC) variable when variable AyHIC is populated.","Consistency",""
"AD0351","351","Inconsistent value for AyHIC","Within a Study and a Parameter, all Analysis Range y Upper Limit (C) (AyHIC) variable values must be the same for each unique value of Analysis Range y Upper Limit (AyHI) variable when variable AyHI is populated.","Consistency",""
"AD0352","352","None of AyLO, AyHI, AyLOC, or AyHIC variables is present when AyIND is present","Analysis Range y Indicator (AyIND) variable indicates the relationship of Analysis Value (AVAL) to the analysis range variables Analysis Range y Lower Limit (AyLO) and/or Analysis Range y Upper Limit (AyHI), or the relationship of Analysis Value (C) (AVALC) variable to the analysis range variables Analysis Range y Lower Limit (C) (AyLOC) and/or Analysis Range y Upper Limit (C) AyHIC. At least one of AyLO, AyHI, AyLOC, and AyHIC is expected to be present for use of AyIND variable.","Presence",""
"AD0353","353, 354, 702, 703, 790","B*IND != AyIND when ABLFL = Y","If the record is flagged as the Analysis Baseline (ABLFL = Y), then the value of Baseline Analysis Range y Indicator (ByIND) variable must equal the value of Analysis Range y Indicator (AyIND) variable.","Consistency",""
"AD0355","355","Inconsistent value for REGION*","Within a study, all Geographic Region y (REGIONy) variable values must be the same for each unique value of Geographic Region y (N) (REGIONyN) when variable REGIONyN is populated.","Consistency",""
"AD0356","356","Inconsistent value for REGION*N","Within a study, all Geographic Region y (N) (REGIONyN) variable values must be the same for each unique value of Geographic Region y (REGIONy) when the primary variable REGIONy is populated.","Consistency",""
"AD0359","359","Inconsistent value for DTHCAUS","Within a study, Cause of Death (DTHCAUS) variable values must be the same for each unique value of Cause of Death(N) (DTHCAUSN) variable when variable DTHCAUSN is populated.","Consistency",""
"AD0360","360","Inconsistent value for DTHCAUSN","Within a study, Cause of Death(N) (DTHCAUSN) variable values must be the same for each unique value of Cause of Death (DTHCAUS) variable when the primary variable DTHCAUS is populated.","Consistency",""
"AD0361","361","Value of ASTDT is greater than value of AENDT","The value of Analysis Start Date (ASTDT) variable must be less or equal to Analysis End Date (AENDT) variable value.","Limit",""
"AD0362","362","Value of ASTDTM is greater than value of AENDTM","The value of Analysis Start Datetime (ASTDTM) variable must be less or equal to Analysis End Datetime (AENDTM) variable value.","Limit",""
"AD0364","364","DOSEU variable is not present when DOSEON or DOSCUMA is present","Treatment Dose Units (DOSEU) variable is required when either Treatment Dose at Record Start (DOSEON) or Cumulative Actual Treatment Dose (DOSCUMA) variable is present in the dataset.","Presence",""
"AD0366","366","Missing RANDDT variable when RANDFL variable is present","Date of Randomization (RANDDT) variable should be included into dataset when Randomized Population Flag (RANDFL) variable is present.","Presence",""
"AD0366A","366+","Missing value for RANDDT when RANDFL is Y","Date of Randomization (RANDDT) variable value should be populated for randomized subjects (when Randomized Population Flag (RANDFL) variable value is 'Y').","Consistency",""
"AD0366B","366+","RANDFL value is not Y when RANDDT is populated","Randomized Population Flag (RANDFL) variable value should be 'Y' for randomized subject (when Date of Randomization (RANDDT) variable value is populated).","Consistency",""
"AD0367","367","For the same USUBJID, the ADSL.ACTARM != DM.ACTARM","The same subject in ADSL and DM datasets must have the same value for Actual Arm (ACTARM). There must be traceability between ADaM and SDTM.","Cross-reference",""
"AD0369","369","*DTF is populated, but *DT or *DTM is not populated","If a Date variable is indicated to be imputated by population of an Imputation Flag (*DTF), that Date variable (*DT) or Datetime variable (*DTM) must have a value.","Consistency",""
"AD0370","370","*TMF is populated, but *TM or *DTM is not populated","If a Time variable is indicated to be imputated by population of an Imputation Flag (*TMF), that Time variable (*TM) or Datetime variable (*DTM) must have a value.","Consistency",""
"AD0376","376, 377, 380, 385, 389, 391, 393, 397, 416, 418, 420, 422, 424, 425, 427, 429, 431, 433, 435, 437, 439, 441, 443, 445, 448, 452, 454, 456, 458, 460, 462, 464, 466, 470, 474, 478, 664, 668, 675, 679, 683, 795, 800, 805, 810, 815, 820, 825, 830, 845, 850, 855, 860, 865, 870, 875","Primary variable * is populated, but its secondary variable is not populated","In a pair of corresponding character and numeric variables, the secondary variable must be populated if its primary variable is populated. Exceptions: *DTC, *FN, TRTPN, TRT01PN, PARAMN, AVALC, BASEC, AVISITN. Corresponding character and numeric values must also have a one-to-one mapping consistency when the primary variable is populated, which are addressed in other rules.","Consistency",""
"AD0381","381, 383, 387, 395, 399","Inconsistent value for Variable within a unique PARAMCD","Within a parameter, there should be only a single value of a primary variable (*) for a given value of secondary variable (*N), considering only those rows on which both variables are populated. Covers variable pairs: BTOXGR/BTOXGRN, BTOXGRL/BTOXGRLN, BTOXGRH/BTOXGRHN, ATOXGRL/ATOXGRLN, ATOXGRH/ATOXGRHN.","Consistency",""
"AD0382","382","Inconsistent value for BTOXGRN within a unique PARAMCD","Within a parameter, there should be only a single value of Baseline Toxicity Grade (N) (BTOXGRN) variable for a given value of Baseline Toxicity Grade (BTOXGR) variable, considering only those rows on which both variables are populated.","Consistency",""
"AD0384","384","Inconsistent value for BTOXGRLN within a unique PARAMCD","Within a parameter, there should be only a single value of Baseline Toxicity Grade Low (N) (BTOXGRLN) variable for a given value of Baseline Toxicity Grade Low (BTOXGRL) variable, considering only those rows on which both variables are populated.","Consistency",""
"AD0388","388","Inconsistent value for BTOXGRHN within a unique PARAMCD","Within a parameter, there should be only a single value of Baseline Toxicity Grade High (N) (BTOXGRHN) variable for a given value of Baseline Toxicity Grade High (BTOXGRH) variable, considering only those rows on which both variables are populated.","Consistency",""
"AD0396","396","Inconsistent value for ATOXGRLN within a unique PARAMCD","Within a parameter, there should be only a single value of ATOXGRLN for a given value of ATOXGRL, considering only those rows on which both variables are populated.","Consistency",""
"AD0400","400","Inconsistent value for ATOXGRHN within a unique PARAMCD","Within a parameter, there should be only a single value of Analysis Toxicity Grade Low (N) (ATOXGRHN) variable for a given value of Analysis Toxicity Grade Low (ATOXGRH) variable, considering only those rows on which both variables are populated.","Consistency",""
"AD0401","401","AVAL is not populated or ATOXGRL is not populated, and ATOXDSCL is populated","On a given record, if Analysis Toxicity Description Low (ATOXDSCL) variable value is populated, then both Analysis Value (AVAL) and the Analysis Toxicity Grade Low (ATOXGRL) variable values must be populated.","Consistency",""
"AD0402","402","AVAL is not populated or ATOXGRH is not populated, and ATOXDSCH is populated","On a given record, if Analysis Toxicity Description High (ATOXDSCH) variable value is populated, then both Analysis Value (AVAL) and the Analysis Toxicity Grade High (ATOXGRH) variable values must be populated.","Consistency",""
"AD0403","403","Inconsistent value for ATOXDSCL within a subject and parameter","Within a subject, there should be only a single value of Analysis Toxicity Description Low (ATOXDSCL) variable for a given value of Parameter Code (PARAMCD) variable, considering only those rows on which both variables are populated.","Consistency",""
"AD0405","405","Inconsistent value for ATOXDSCH within a subject and parameter","Within a subject, there should be only a single value of Analysis Toxicity Description High (ATOXDSCH) variable for a given value of Parameter Code (PARAMCD) variable, considering only those rows on which both variables are populated.","Consistency",""
"AD0450","450","MCRITyML is populated, but MCRITyMN is not populated","On a given record, if Multi-Response Criterion y Evaluation (MCRITyML) variable value is populated, then Multi-Response Criterion y Eval (N) (MCRITyMN) variable value must also be populated.","Consistency",""
"AD0451","451","MCRITyMN is populated, but MCRITyML is not populated","On a given record, if Multi-Response Criterion y Eval (N) (MCRITyMN) variable value is populated, then Multi-Response Criterion y Evaluation (MCRITyML) variable value must also be populated.","Consistency",""
"AD0468","468","Inconsistent value for STRATAR","There should be only a single value of Strata Used for Randomization (STRATAR) variable for a given value of Strata Used for Randomization (N) (STRATARN) variable, considering only those rows on which both variables are populated.","Consistency",""
"AD0469","469","Inconsistent value for STRATARN","There should be only a single value of Strata Used for Randomization (N) (STRATARN) variable for a given value of Strata Used for Randomization (STRATAR) variable, considering only those rows on which both variables are populated.","Consistency",""
"AD0472","472","Inconsistent value for STRATwR","There should be only a single value of Strat Factor w Value Used for Rand (STRATwR) variable for a given value of Strat Factor w Value Used for Rand (N) (STRATwRN) variable, considering only those rows on which both variables are populated.","Consistency",""
"AD0473","473","Inconsistent value for STRATwRN","There should be only a single value of Strat Factor w Value Used for Rand (N) (STRATwRN) variable for a given value of Strat Factor w Value Used for Rand (STRATwR) variable, considering only those rows on which both variables are populated.","Consistency",""
"AD0476","476","Inconsistent value for STRATAV","There should be only a single value of Strata from Verification Source (STRATAV) variable for a given value of Strata from Verification Source (N) (STRATAVN) variable, considering only those rows on which both variables are populated.","Consistency",""
"AD0477","477","Inconsistent value for STRATAVN","There should be only a single value of Strata from Verification Source (N) (STRATAVN) variable for a given value of Strata from Verification Source (STRATAV) variable, considering only those rows on which both variables are populated.","Consistency",""
"AD0480","480","Inconsistent value for STRATwV","There should be only a single value of Strat Factor w Value from Verif Source (STRATwV) variable for a given value of Strat Fact w Val from Verif Source (N) (STRATwVN) variable, considering only those rows on which both variables are populated.","Consistency",""
"AD0481","481","Inconsistent value for STRATwVN","There should be only a single value of Strat Fact w Val from Verif Source (N) (STRATwVN) variable for a given value of Strat Factor w Value from Verif Source (STRATwV) variable, considering only those rows on which both variables are populated.","Consistency",""
"AD0482","482","Primary variable BCHGCATy is populated, but its secondary variable BCHGCAyN is not populated","In a pair of corresponding character and numeric variables, the primary or most commonly used variable must be populated if its secondary variable describing it is populated. Corresponding character and numeric values must also have a one-to-one mapping consistency when the primary variable is populated, which are addressed in other rules.","Consistency",""
"AD0483","483","Secondary variable BCHGCAyN is populated, but its primary variable BCHGCATy is not populated","In a pair of corresponding character and numeric variables, the secondary variable must be populated if its primary variable is populated. Corresponding character and numeric values must also have a one-to-one mapping consistency when the primary variable is populated, which are addressed in other rules.","Consistency",""
"AD0484","484","Primary variable PBCHGCAy is populated, but its secondary variable PBCHGCyN is not populated","In a pair of corresponding character and numeric variables, the primary or most commonly used variable must be populated if its secondary variable describing it is populated. Corresponding character and numeric values must also have a one-to-one mapping consistency when the primary variable is populated, which are addressed in other rules.","Consistency",""
"AD0485","485","Secondary variable PBCHGCyN is populated, but its primary variable PBCHGCAy is not populated","In a pair of corresponding character and numeric variables, the secondary variable must be populated if its primary variable is populated. Corresponding character and numeric values must also have a one-to-one mapping consistency when the primary variable is populated, which are addressed in other rules.","Consistency",""
"AD0492","492","SHIFTy is present and all of the following variable pairs (BASECATy, AVALCATy), (BNRIND, ANRIND), (ByIND, AyIND), (BTOXGR, ATOXGR), (BTOXGRL, ATOXGRL), (BTOXGRH, ATOXGRH), (BASE, AVAL) and (BASEC, AVALC) are not present","If Shift $y (SHIFTy) variable is present, the variable pair it is describing should also be present. Pairs include (BASECATy/ AVALCATy), (BNRIND/ANRIND), (ByIND/AyIND), (BTOXGR/ATOXGR), (BTOXGRL/ATOXGRL), (BTOXGRH/ATOXGRH), (BASE/AVAL) and (BASEC/AVALC).","Presence",""
"AD0499","499","ASPER is present and APERIOD is not present","If Subperiod within Period (ASPER) variable is used in a dataset, Period (APERIOD) variable must also be present in that dataset.","Presence",""
"AD0501","501","ASPER is populated and APERIOD is not populated","On a given record, if Subperiod within Period (ASPER) variable is populated, then Period (APERIOD) variable must be populated.","Consistency",""
"AD0503","503","*DT must contain 'Date' in the label","Variable labels containing a word or phrase in brackets, e.g. {Date}, should be replaced with appropriate text that contains the bracketed word or phrase somewhere in the text.","Metadata",""
"AD0504","504","*TM must contain 'Time' in the label","Variable labels containing a word or phrase in brackets, e.g. {Time}, should be replaced with appropriate text that contains the bracketed word or phrase somewhere in the text.","Metadata",""
"AD0505","505","*DTM must contain 'Datetime' in the label","Variable labels containing a word or phrase in brackets, e.g. {Datetime}, should be replaced with appropriate text that contains the bracketed word or phrase somewhere in the text.","Metadata",""
"AD0507","507","*DTF must contain 'Date Imputation Flag' in the label","Variable labels containing a word or phrase in brackets, e.g. {Date Imputation Flag}, should be replaced with appropriate text that contains the bracketed word or phrase somewhere in the text.","Metadata",""
"AD0508","508","*TMF must contain 'Time Imputation Flag' in the label","Variable labels containing a word or phrase in brackets, e.g. {Time Imputation Flag}, should be replaced with appropriate text that contains the bracketed word or phrase somewhere in the text.","Metadata",""
"AD0509","509","*SDT must contain 'Start Date' in the label","Variable labels containing a word or phrase in brackets, e.g. {Start Date}, should be replaced with appropriate text that contains the bracketed word or phrase somewhere in the text.","Metadata",""
"AD0510","510","*STM must contain 'Start Time' in the label","Variable labels containing a word or phrase in brackets, e.g. {Start Time}, should be replaced with appropriate text that contains the bracketed word or phrase somewhere in the text.","Metadata",""
"AD0511","511","*SDTM must contain 'Start Datetime' in the label","Variable labels containing a word or phrase in brackets, e.g. {Start Datetime}, should be replaced with appropriate text that contains the bracketed word or phrase somewhere in the text.","Metadata",""
"AD0513","513","*SDTF must contain 'Start Date Imputation Flag' in the label","Variable labels containing a word or phrase in brackets, e.g. {Start Date Imputation Flag}, should be replaced with appropriate text that contains the bracketed word or phrase somewhere in the text.","Metadata",""
"AD0514","514","*STMF must contain 'Start Time Imputation Flag' in the label","Variable labels containing a word or phrase in brackets, e.g. {Start Time Imputation Flag}, should be replaced with appropriate text that contains the bracketed word or phrase somewhere in the text.","Metadata",""
"AD0515","515","*EDT must contain 'End Date' in the label","Variable labels containing a word or phrase in brackets, e.g. {End Date}, should be replaced with appropriate text that contains the bracketed word or phrase somewhere in the text.","Metadata",""
"AD0516","516","*ETM must contain 'End Time' in the label","Variable labels containing a word or phrase in brackets, e.g. {End Time}, should be replaced with appropriate text that contains the bracketed word or phrase somewhere in the text.","Metadata",""
"AD0517","517","*EDTM must contain 'End Datetime' in the label","Variable labels containing a word or phrase in brackets, e.g. {End Datetime}, should be replaced with appropriate text that contains the bracketed word or phrase somewhere in the text.","Metadata",""
"AD0519","519","*EDTF must contain 'End Date Imputation Flag' in the label","Variable labels containing a word or phrase in brackets, e.g. {End Date Imputation Flag}, should be replaced with appropriate text that contains the bracketed word or phrase somewhere in the text.","Metadata",""
"AD0520","520","*ETMF must contain 'End Time Imputation Flag' in the label","Variable labels containing a word or phrase in brackets, e.g. {End Time Imputation Flag}, should be replaced with appropriate text that contains the bracketed word or phrase somewhere in the text.","Metadata",""
"AD0543","543","AVALCAyN is present and AVALCATy is not present","If Analysis Value Category y (N) (AVALCAyN) variable is used in a dataset, Analysis Value Category y (AVALCATy) variable must also be present in that dataset.","Presence",""
"AD0544","544","BASECAyN is present and BASECATy is not present","If Baseline Category y (N) (BASECAyN) variable is used in a dataset, Baseline Category y (BASECATy) variable must also be present in that dataset.","Presence",""
"AD0545","545","CHGCATyN is present and CHGCATy is not present","If Change from Baseline Category y (N) (CHGCATyN) variable is used in a dataset, Change from Baseline Category y (CHGCATy) variable must also be present in that dataset.","Presence",""
"AD0546","546","PCHGCAyN is present and PCHGCATy is not present","If Percent Chg from Baseline Category y (N) (PCHGCAyN) variable is used in a dataset, Percent Chg from Baseline Category y (PCHGCATy) variable must also be present in that dataset.","Presence",""
"AD0552","552","MCRITyMN is present and MCRITyML is not present","If Multi-Response Criterion y Eval (N) (MCRITyMN) variable is used in a dataset, Multi-Response Criterion y Evaluation (MCRITyML) variable must also be present in that dataset.","Presence",""
"AD0565","565","BCHGCAyN is present and BCHGCATy is not present","If Change to Baseline Category y (N) (BCHGCAyN) variable is used in a dataset, Change to Baseline Category y (BCHGCATy) variable must also be present in that dataset.","Presence",""
"AD0566","566","PBCHGCyN is present and PBCHGCAy is not present","If Percent Change to Baseline Category y (N) (PBCHGCyN) variable is used in a dataset, Percent Change to Baseline Category y (PBCHGCAy) variable must also be present in that dataset.","Presence",""
"AD0570","570, 571, 572, , 573, 574, 575, 576, 577, 578, 579, 580","Variable is present, but TRTxxP is not present","If any of the subject-level subperiod timing variables (PxxSw, PxxSwSDT, PxxSwSTM, PxxSwSDM, PxxSwSDF, PxxSwSTF, PxxSwEDT, PxxSwETM, PxxSwEDM, PxxSwEDF, PxxSwETF) are present, there must be a corresponding Planned Treatment for Period xx (TRTxxP) character variable present for the same xx value.","Presence",""
"AD0582","582, 704","Calculation issue: BCHG != BASE - AVAL","When all 3 variables are populated, Change to Baseline (BCHG) must equal Baseline Value (BASE) minus Analysis Value (AVAL).","Consistency",""
"AD0584","584","Inconsistent value for BCHGCATy within a unique PARAMCD","Within a parameter, there should be only a single value of Change to Baseline Category y (BCHGCATy) variable for a given value of Change to Baseline Category y (N) (BCHGCAyN) variable, considering only those rows on which both variables are populated.","Consistency",""
"AD0585","585","Inconsistent value for BCHGCAyN within a unique PARAMCD","Within a parameter, there should be only a single value of Change to Baseline Category y (N) (BCHGCAyN) variable for a given value of Change to Baseline Category y (BCHGCATy) variable, considering only those rows on which both variables are populated.","Consistency",""
"AD0586","586, 705","Calculation issue: PBCHG != (BASE - AVAL)/AVAL * 100","""When all 3 variables are populated and base &lt","&gt"," 0, Percent Change to Baseline (PBCHG) must equal the difference of Baseline Value (BASE) minus Analysis Value (AVAL) divided by the analysis value (AVAL), expressed as a percentage.""","Consistency",""
"AD0588","588","Inconsistent value for PBCHGCAy within a unique PARAMCD","Within a parameter, there should be only a single value of Percent Change to Baseline Category y (PBCHGCAy) variable for a given value of Percent Change to Baseline Category y (N) (PBCHGCyN) variable, considering only those rows on which both variables are populated.","Consistency",""
"AD0589","589","Inconsistent value for PBCHGCyN within a unique PARAMCD","Within a parameter, there should be only a single value of Percent Change to Baseline Category y (N) (PBCHGCyN) variable for a given value of Percent Change to Baseline Category y (PBCHGCAy) variable, considering only those rows on which both variables are populated.","Consistency",""
"AD0605","605","APHASEN w has a PHSDT != ADSL.PHwSDT","When analysis Phase (APHASE) variable is defined, the Phase Start Date (PHSDT) variable value must equal ADSL Phase w Start Date (PHwSDT) variable value for that phase defined by the value in Phase (N) (APHASEN) variable. APHASEN = w.","Cross-reference",""
"AD0607","607","APHASEN w has a PHSTM != ADSL.PHwSTM","When analysis Phase (APHASE) variable is defined, the analysis Phase Start Time (PHSTM) variable value must equal ADSL Phase w Start Time (PHwSTM) variable value for that phase defined by the value in Phase (N) (APHASEN) variable. APHASEN = w.","Cross-reference",""
"AD0609","609","APHASEN w has a PHSDTM != ADSL.PHwSDTM","When analysis Phase (APHASE) variable is defined, the analysis Phase Start Datetime (PHSDTM) variable value must equal ADSL Phase w Start Datetime (PHwSDTM) for that phase defined by the value in Phase (N) (APHASEN) variable. APHASEN = w.","Cross-reference",""
"AD0611","611","APHASEN w has a PHEDT != ADSL.PHwEDT","When analysis Phase (APHASE) is defined, the Phase End Date (PHEDT) variable value must equal ADSL Phase w End Date (PHwEDT) variable value for that phase defined by the value in Phase (N) (APHASEN) variable. APHASEN = w.","Cross-reference",""
"AD0613","613","APHASEN w has a PHETM != ADSL.PHwETM","When analysis Phase (APHASE) variable is defined, the Phase End Time (PHETM) variable value must equal ADSL Phase w End Time (PHwETM) variable value for that phase defined by the value in Phase (N) (APHASEN) variable. APHASEN = w.","Cross-reference",""
"AD0615","615","APHASEN w has a PHEDTM != ADSL.PHwEDTM","When analysis Phase (APHASE) variable) is defined, the Phase End Datetime (PHEDTM) variable value must equal ADSL Phase w End Datetime (PHwEDTM) variable value for that phase defined by the value in Phase (N) (APHASEN) variable. APHASEN = w.","Cross-reference",""
"AD0616","616","Inconsistent value for TRCMPGy","There should be only a single value of Treatment Compliance (%) Group y (TRCMPGy) variable for a given value of Treatment Compliance (%) Group y (N) (TRCMPGyN) variable, considering only those rows on which both variables are populated.","Consistency",""
"AD0617","617","Inconsistent value for TRCMPGyN","There should be only a single value of Treatment Compliance (%) Group y (N) (TRCMPGyN) variable for a given value of Treatment Compliance (%) Group y (TRCMPGy) variable, considering only those rows on which both variables are populated.","Consistency",""
"AD0647","647","TREMxxFL = Y and TRTEMFL != Y","If TREMxxFL is included, TRTEMFL is defined as the overall treatment emergent flag. If any Treatment Emergent Period xx Flag (TREMxxFL) variables are flagged Y, then the overall Treatment Emergent Analysis Flag (TRTEMFL) variable should also be Y.","Consistency",""
"AD0648","648","TRTEMwFL = Y and TRTEMFL != Y","If TRTEMwFL is included, TRTEMFL is defined as the overall treatment emergent flag. If any Treatment Emergent Analysis w Flag (TRTEMwFL) variables are flagged Y, then the overall Treatment Emergent Analysis Flag (TRTEMFL) variable should also be Y.","Consistency",""
"AD0649","649","ONTRxxFL = Y and ONTRTFL != Y","If ONTRxxFL is included, ONTRTFL is defined as the overall on-treatment flag. If any On Treatment Period xx Flag (ONTRxxFL) variables are flagged Y, then the overall On Treatment Record Flag (ONTRTFL) variable should also be Y.","Consistency",""
"AD0650","650","ONTRTwFL = Y and ONTRTFL != Y","If ONTRTwFL is included, ONTRTFL is defined as the overall on-treatment flag. If any On Treatment Record w Flag (ONTRTwFL) variables are flagged Y, then the overall On Treatment Record Flag (ONTRTFL) variable should also be Y.","Consistency",""
"AD0651","651","ONTRxxFL is present but ONTRTFL is not present","If ONTRxxFL is included, then ONTRTFL must be included and is defined as the overall on treatment flag.","Presence",""
"AD0652","652","ONTRTwFL is present but ONTRTFL is not present","If ONTRTwFL is included, then ONTRTFL must be included and is defined as the overall on treatment flag.","Presence",""
"AD0658","658","NCAXFN value is not 1 or null","NCAXFN (PK NCA Exclusion Flag (N)) must be 1 or null. It is a numeric flag for exclusion of a record into a PK NCA calculation: 1 = exclusion, null = inclusion.","Terminology",""
"AD0659","659","PKSUMXFN value is not 1 or null","PKSUMXFN (PK Summary Exclusion Flag (N)) must be 1 or null. It is a numeric flag for exclusion of a record from a PK summary: 1 = exclusion, null = inclusion.","Terminology",""
"AD0660","660","METABFL value is not Y or null","METABFL (Metabolite Flag) must be Y or null.","Terminology",""
"AD0661","661","ADOSEDUR is present and NDOSEDUR or DOSEDURU is not present","When ADOSEDUR is present, NDOSEDUR and/or DOSEDURU must also be included in the dataset.","Presence",""
"AD0662","662","TMPCTDF is populated and ARRLT or NRRLT are not populated","If TMPCTDF (Percent Diff. Nominal vs. Actual Time) is populated, both ARRLT (Actual Rel. Time from Ref. Dose) and NRRLT (Nominal Rel. Time from Ref. Dose) must be populated.","Consistency",""
"AD0666","666","DOSPCTDF is populated and DOSEP and DOSEA are not populated","If DOSPCTDF (Percent Diff. Nominal vs. Actual Dose) is populated, both DOSEP (Planned Treatment Dose) and DOSEA (Actual Treatment Dose) must be populated.","Consistency",""
"AD0667","667","DOSPCTDF is populated and TRTA is not populated","If DOSPCTDF (Percent Diff. Nominal vs. Actual Dose) is populated, then TRTA (Actual Treatment) must be populated.","Consistency",""
"AD0677","677","Inconsistent value for DEVTYGy","Within a study, All DEVTYGy values must be the same for each unique value of DEVTYGyN, when both variables are populated. Analogous rule for AD0678.","Consistency",""
"AD0678","678","Inconsistent value for DEVTYGyN","Within a study, All DEVTYGyN values must be the same for each unique value of DEVTYGy, when both variables are populated. Analogous rule for AD0677.","Consistency",""
"AD0681","681","Inconsistent value for MODELGy","Within a study, All MODELGy values must be the same for each unique value of MODELGyN, when both variables are populated. Analogous rule for AD0682.","Consistency",""
"AD0682","682","Inconsistent value for MODELGyN","Within a study, All MODELGyN values must be the same for each unique value of MODELGy, when both variables are populated. Analogous rule for AD0681.","Consistency",""
"AD0687","687","Value of DEVIPDT is greater than value of DEVXPDT","The value of DEVIPDT (Date Device Implanted) variable must be less or equal to DEVXPDT (Date Device Explanted)","Limit",""
"AD0688","688","SPDEVID duplicate values are not allowed within a study and subject","There is more than one record per study for unique values of USUBJID and SPDEVID in the ADDL dataset.","Consistency",""
"AD0691","691, 692","BASE or BASEC is populated for a unique SPDEVID, USUBJID, PARAMCD but no baseline record exists","Within a given Subject's SPDEVID and PARAMCD, a baseline value is populated (either BASE or BASEC) and there is not at least one record in that group marked as the baseline (ABLFL = Y).","Presence",""
"AD0693","693","Inconsistent value for BASE","Within a study, all BASE values must be the same for each unique value group of [SPDEVID, USUBJID, PARAMCD, BASEC] when PARAMCD, BASE and BASEC are populated (ADaM IG: There must be a one-to-one map between BASE and BASEC within a given PARAM if BOTH are populated).","Consistency",""
"AD0694","694","Inconsistent value for BASEC","Within a study, all BASEC values must be the same for each unique value group of [SPDEVID, USUBJID, PARAMCD, BASE] when PARAMCD, BASE and BASEC are populated. (ADaM IG: There must be a one-to-one map between BASE and BASEC within a given PARAM if BOTH are populated).","Consistency",""
"AD0696","696, 697","Multiple baseline records exist for a unique SPDEVID, USUBJID, PARAMCD, BASETYPE","For a set of [Sponsor Device Identifier (SPDEVID), Subject (USUBJID), Parameter (PARAMCD), baseline type (BASETYPE)] only one record can be the actual baseline value, marked by ABLFL = Y.","Consistency",""
"AD0792","792","*SDT is greater than *EDT","On a given record, a variable with a suffix of SDT has a value greater than a value of a variable with the same root and a suffix of EDT, and both variables are populated.","Consistency",""
"AD0793","793","*STM is greater than *ETM","On a given record, a variable with a suffix of STM has a value greater than a value of a variable with the same root and a suffix of ETM, and both variables are populated.","Consistency",""
"AD0794","794","*SDTM is greater than *EDTM","On a given record, a variable with a suffix of SDTM has a value greater than a value of a variable with the same root and a suffix of EDTM, and both variables are populated.","Consistency",""
"AD0797","797","Inconsistent value for PROJIDN","On a given record, there is more than one value of PROJIDN for a given value of PROJID, considering only those rows on which both variables are populated.","Consistency",""
"AD0798","798","Inconsistent value for PROJID","On a given record, there is more than one value of PROJID for a given value of PROJIDN, considering only those rows on which both variables are populated.","Consistency",""
"AD0802","802","Inconsistent value for STUDYIDN","Within a dataset, there is more than one value of STUDYIDN for a given value of STUDYID, considering only those rows on which both variables are populated.","Consistency",""
"AD0803","803","Inconsistent value for STUDYID","Within a dataset, there is more than one value of STUDYID for a given value of STUDYIDN, considering only those rows on which both variables are populated.","Consistency",""
"AD0807","807","Inconsistent value for SUBJTYPC","Within a dataset, there is more than one value of SUBJTYPC for a given value of SUBJTYP, considering only those rows on which both variables are populated.","Consistency",""
"AD0808","808","Inconsistent value for SUBJTYP","Within a dataset, there is more than one value of SUBJTYP for a given value of SUBJTYPC, considering only those rows on which both variables are populated.","Consistency",""
"AD0812","812","Inconsistent value for USUBJIDN","Within a dataset, there is more than one value of USUBJIDN for a given value of USUBJID, considering only those rows on which both variables are populated.","Consistency",""
"AD0813","813","Inconsistent value for USUBJID","Within a dataset, there is more than one value of USUBJID for a given value of USUBJIDN, considering only those rows on which both variables are populated.","Consistency",""
"AD0817","817","Inconsistent value for SUBJIDN","Within a dataset, there is more than one value of SUBJIDN for a given value of SUBJID, considering only those rows on which both variables are populated.","Consistency",""
"AD0818","818","Inconsistent value for SUBJID","Within a dataset, there is more than one value of SUBJID for a given value of SUBJIDN, considering only those rows on which both variables are populated.","Consistency",""
"AD0822","822","Inconsistent value for SITEIDN","Within a dataset, there is more than one value of SITEIDN for a given value of SITEID, considering only those rows on which both variables are populated.","Consistency",""
"AD0823","823","Inconsistent value for SITEID","Within a dataset, there is more than one value of SITEID for a given value of SITEIDN, considering only those rows on which both variables are populated.","Consistency",""
"AD0827","827","Inconsistent value for FLGREASC","Within a dataset, there is more than one value of FLGREASC for a given value of FLGREAS, considering only those rows on which both variables are populated.","Consistency",""
"AD0828","828","Inconsistent value for FLGREAS","Within a dataset, there is more than one value of FLGREAS for a given value of FLGREASC, considering only those rows on which both variables are populated.","Consistency",""
"AD0832","832","Inconsistent value for DVIDN","Within a dataset, there is more than one value of DVIDN for a given value of DVID, considering only those rows on which both variables are populated.","Consistency",""
"AD0833","833","Inconsistent value for DVID","Within a dataset, there is more than one value of DVID for a given value of DVIDN, considering only those rows on which both variables are populated.","Consistency",""
"AD0837","837","Inconsistent value for BLQFN","Within a dataset, there is more than one value of BLQFN for a given value of BLQFL, considering only those rows on which both variables are populated.","Consistency",""
"AD0838","838","Inconsistent value for BLQFL","Within a dataset, there is more than one value of BLQFL for a given value of BLQFN, considering only those rows on which both variables are populated.","Consistency",""
"AD0842","842","Inconsistent value for ALQFN","Within a dataset, there is more than one value of ALQFN for a given value of ALQFL, considering only those rows on which both variables are populated.","Consistency",""
"AD0843","843","Inconsistent value for ALQFL","Within a dataset, there is more than one value of ALQFL for a given value of ALQFN, considering only those rows on which both variables are populated.","Consistency",""
"AD0847","847","Inconsistent value for FORMN","Within a dataset, there is more than one value of FORMN for a given value of FORM, considering only those rows on which both variables are populated.","Consistency",""
"AD0848","848","Inconsistent value for FORM","Within a dataset, there is more than one value of FORM for a given value of FORMN, considering only those rows on which both variables are populated.","Consistency",""
"AD0852","852","Inconsistent value for ROUTEN","Within a dataset, there is more than one value of ROUTEN for a given value of ROUTE, considering only those rows on which both variables are populated.","Consistency",""
"AD0853","853","Inconsistent value for ROUTE","Within a dataset, there is more than one value of ROUTE for a given value of ROUTEN, considering only those rows on which both variables are populated.","Consistency",""
"AD0862","862","Inconsistent value for COHORTC","Within a dataset, there is more than one value of COHORTC for a given value of COHORT, considering only those rows on which both variables are populated.","Consistency",""
"AD0863","863","Inconsistent value for COHORT","On a given record, there is more than one value of COHORT for a given value of COHORTC, considering only those rows on which both variables are populated.","Consistency",""
"AD0867","867","Inconsistent value for RACEN","Within a dataset, there is more than one value of RACEN for a given value of RACE, considering only those rows on which both variables are populated.","Consistency",""
"AD0868","868","Inconsistent value for RACE","Within a dataset, there is more than one value of RACE for a given value of RACEN, considering only those rows on which both variables are populated","Consistency",""
"AD0872","872","Inconsistent value for SEXN","Within a dataset, there is more than one value of SEXN for a given value of SEX, considering only those rows on which both variables are populated.","Consistency",""
"AD0873","873","Inconsistent value for SEX","Within a dataset, there is more than one value of SEX for a given value of SEXN, considering only those rows on which both variables are populated.","Consistency",""
"AD0877","877","Inconsistent value for COUNTRYN","Within a dataset, there is more than one value of COUNTRYN for a given value of COUNTRY, considering only those rows on which both variables are populated.","Consistency",""
"AD0878","878","Inconsistent value for COUNTRY","Within a dataset, there is more than one value of COUNTRY for a given value of COUNTRYN, considering only those rows on which both variables are populated.","Consistency",""
"AD0880","880","COUNTRY is populated and COUNTRYL is not populated","When COUNTRY is populated, it's paired variable COUNTRYL must be populated.","Consistency",""
"AD0881","881","COUNTRYL is populated and COUNTRY is not populated","When COUNTRYL is populated, it's paired variable COUNTRY must be populated.","Consistency",""
"AD0882","882","Inconsistent value for COUNTRYL","Within a dataset, there is more than one value of COUNTRYL for a given value of COUNTRY, considering only those rows on which both variables are populated.","Consistency",""
"AD0883","883","Inconsistent value for COUNTRY","Within a dataset, there is more than one value of COUNTRY for a given value of COUNTRYL, considering only those rows on which both variables are populated.","Consistency",""
"AD0884","884","COUNTRYL is present and COUNTRY is not present","When COUNTRYL is present, the paired variable COUNTRY must also be included in the dataset.","Presence",""
"AD0891","891","Inconsistent value for COHORTN","On a given record, there is more than one value of COHORTN for a given value of COHORT, considering only those rows on which both variables are populated.","Consistency",""
"AD0892","892","Inconsistent value for COHORT","On a given record, there is more than one value of COHORT for a given value of COHORTN, considering only those rows on which both variables are populated.","Consistency",""
"AD0893","857, 893","Inconsistent value for ACYCLEC","On a given record, there is more than one value of ACYCLEC for a given value of ACYCLE, considering only those rows on which both variables are populated.","Consistency",""
"AD0894","858, 894","Inconsistent value for ACYCLE","On a given record, there is more than one value of ACYCLE for a given value of ACYCLEC, considering only those rows on which both variables are populated.","Consistency",""
"AD1011","375, 378, 379, 386, 390, 392, 394, 398, 415, 417, 419, 421, 423, 426, 428, 430, 432, 434, 436, 438, 440, 442, 444, 446, 447, 449, 453, 455, 457, 459, 461, 463, 465, 467, 471, 475, 479, 663, 669, 676, 680, 684, 796, 801, 806, 811, 816, 821, 826, 831, 846, 851, 856, 861, 866, 871, 876","Secondary variable is populated, but its primary variable * is not populated","In a pair of corresponding character and numeric variables (* and *N or *C) the primary or most commonly used variable must be populated if its secondary variable describing it is populated. Exceptions: *DTC, *FN, TRTPN, TRT01PN, PARAMN, AVALC, BASEC, *LOC, and *HIC. Corresponding character and numeric values must also have a one-to-one mapping consistency when the primary variable is populated, which are addressed in other rules.","Consistency",""
"AD1012A","521, 522, 523, 524, 527, 528, 529, 530, 531, 532, 533, 534, 535, 536, 537, 538, 539, 540, 541, 542, 547, 548, 549, 550, 551, 553, 554, 555, 556, 557, 558, 559, 560, 561, 562, 563, 665, 670, 799, 809, 819, 824, 829, 834, 849, 854, 859, 864, 869, 874, 879","Secondary variable is present, but its primary variable is not present","In a pair of corresponding character and numeric variables, the primary or most commonly used variable must be present if its secondary version describing it (*N or *C) is present. This is a rule designed to look explicitly at variable pairs defined in the CDISC standard documents. A similar rule that checks custom *N or *C variables (with a few exceptions) is AD1012. This rule is expected to be added to CDISC ADaM Conformance Rules in the future.","Presence",""
"AD1018","+","Illegal variable name: zz is not in [01-99] for ANLzzFL/FN","For Analysis Flag zz (ANLzzFL) and Analysis Flag zz (N) (ANLzzFN) variables, 'zz' is an index for the zzth record selection algorithm where 'zz' is must be in [01-99]. Similar to CDISC ADaM Validation Checks No. 299-303.","Format",""
"AD1019","+","Illegal variable name: xx is not in [01-99] for an ADSL trial date","For ADSL Trial Dates xx variables of form TRxx... and APxx..., 'xx' must be the treatment period (01 to 99). This rule covers 20 distinct variable forms listed in ADSL. It's anticipated that the CDISC ADaM Validation team will release 20 new rules to cover this scenario.","Format",""
"AD1024","+","Traceability rules not executed due to missing DM dataset","When validating ADaM datasets, the DM dataset must also be included to ensure traceability. Note: For the final submission the eCTD structure should be maintained. Therefore, the SDTM and ADaM datasets should be submitted in their appropriate locations. Do not include the DM dataset in the ../analysis/adam/datasets folder.","Presence",""
"AD1025","+","Traceability rules not executed due to missing AE dataset","When validating ADaM datasets, the AE dataset must also be included to ensure traceability. Note: For the final submission the eCTD structure should be maintained. Therefore, the SDTM and ADaM datasets should be submitted in their appropriate locations. Do not include the AE dataset in the ../analysis/adam/datasets folder.","Presence",""
"AD1026","+","Traceability rules not executed due to missing EX dataset","When validating ADaM datasets, the EX dataset must also be included to ensure traceability. Note: For the final submission the eCTD structure should be maintained. Therefore, the SDTM and ADaM datasets should be submitted in their appropriate locations. Do not include the EX dataset in the ../analysis/adam/datasets folder.","Presence",""
"AD2001","","The combination of STUDYID and USUBJID value from SDTM DM does not exist in ADSL","The combination of Study Identifier (STUDYID) and Unique Subject Identifier (USUBJID) values in ADaM Analysis Subject Level (ADSL) dataset should be populated by values of the same variables from the study SDTM Demographics (DM) domain.","Cross-reference",""
"AD9999","+","Dataset not validated","Validation is defined only for ADSL, BDS, and OCCDS datasets. Other dataset structures are not currently supported.","Presence",""
"CT2001","FDAB017","Variable value not found in non-extensible codelist","Variable must be populated with terms from its CDISC controlled terminology codelist. New terms cannot be added into non-extensible codelists.","Terminology",""
"CT2002","FDAB017","Variable value not found in extensible codelist","Variable should be populated with terms from its CDISC controlled terminology codelist. New terms can be added as long as they are not duplicates, synonyms or subsets of existing standard terms.","Terminology",""
"CT2003","FDAB009","Coded and Decoded values do not have the same Code in CDISC CT","Paired variables such as TEST/TESTCD must be populated using terms with the same Codelist Code value in CDISC control terminology. There is one-to-one relationship between paired variable values defined in CDISC control terminology by Codelist Code value.","Terminology",""
"CT2004","CG0021, 40, 49","Variable value not found in non-extensible codelist when value-level condition occurs","Variable must be populated with terms from its CDISC controlled terminology codelist when its value level condition is met. New terms cannot be added into non-extensible codelists.","Terminology",""
"CT2005","CG0021, 40, 49","Variable value not found in extensible codelist when value-level condition occurs","Variable should be populated with terms from its CDISC controlled terminology codelist when its value level condition is met. New terms can be added as long as they are not duplicates, synonyms or subsets of existing standard terms.","Terminology",""
"CT2006","FDAB009","Coded and Decoded values do not have the same Code in CDISC CT when value-level condition occurs","Paired variables such as TEST/TESTCD must be populated using terms with the same Codelist Code value in CDISC control terminology. There is one-to-one relationship between paired variable values defined in CDISC control terminology by Codelist Code value within the same value level condition.","Terminology",""
"DD0101","eCTD 1736","Missing define.xml file","Guidance provided by regulatory agencies states that eCTD submissions must include a define.xml file for each study in Module 4 (nonclinical) and Module 5 (clinical). Note: Refer to the data standards catalog by the relevant Regulatory Agency for acceptance of standards and their versions.","Presence","Reject"
"SD0001","CG0408, 278","No records in data source","Domain table should have at least one record.","Presence",""
"SD0037","TCG 4.1.4.5","Value for variable not found in user-defined codelist","Variable values should be populated with terms found in the user-defined codelist associated with the variable in define.xml.","Terminology",""
"SD0054","TCG 4.1.4.5","Variable in define.xml is not present in the dataset","Variables listed in the data definition document (define.xml) should be included in the dataset.","Metadata",""
"SD0059","TCG 4.1.4.5","Define.xml/dataset variable type mismatch","Variable DataType in define.xml must match variable Type in dataset. Define-XML data types of 'integer' and 'float' match dataset type of 'Num', all other match 'Char'.","Metadata",""
"SD0060","TCG 4.1.4.5","Variable in dataset is not present in define.xml","Variables included in the dataset must be described in the data definition document (define.xml).","Metadata",""
"SD0061","TCG 4.1.4.5","Domain referenced in define.xml, but dataset is missing","Domains referenced in data definition document (define.xml) should be included in the submission.","Metadata",""
"SD0062","TCG 3.3.1","Incompatible data source","Domain table must have a valid format (e.g., SAS transport (XPORT) v.5 or text-delimited).","Format",""
"SD1063","TCG 4.1.4.5","Dataset is not present in define.xml","Datasets included in study data must be described in the data definition document (define.xml).","Metadata",""
"SD1071","FDAB024","Dataset is greater than 5 GB in size","Datasets greater than 5 gigabytes (GB) in size should be split into smaller datasets no larger than 5 GB.","Metadata",""
"SD1082","","Variable length is too long for actual data","Variable length should be assigned based on actual stored data to minimize file size. Datasets should be re-sized to the maximum length of actual data used prior to splitting.","Metadata",""
"SD1228","TCG 4.1.4.5","Variable value not found in user-defined codelist when value-level condition occurs","Variable value must be populated with terms from user-defined value level codelist as specified in define.xml file.","Terminology",""
"SD1229","TCG 4.1.4.5","Variable value is null when value-level condition occurs","Variable value must be populated when value level attribute Mandatory='Yes' as specified in define.xml file.","Terminology",""
"SD1230","TCG 4.1.4.5","Variable datatype is not %Variable.@Clause.DataType% when value-level condition occurs","Value level datatype must match the datatype described in define.xml.","Format",""
"SD1231","TCG 4.1.4.5","Variable value is longer than defined max length %Variable.@Clause.Length% when value-level condition occurs","Value level length must not exceed the length as specified define.xml.","Limit",""
"SD1324","TCG 4.1.4.5","Define.xml/dataset variable label mismatch","Variable Label in define.xml must match variable Label in dataset.","Metadata",""
"SD1325","TCG 4.1.4.5","Define.xml/dataset description mismatch","Dataset Description in define.xml must match dataset Description.","Metadata",""
"SD1457","","Invalid value for Dataset Name","Dataset Name (DATASET) should follow limitations of SAS XPORT format v5. It should not exceed 8 characters and cannot contain characters other than letters in upper case, numbers, or underscores.","Format",""
"SD1474","","Invalid value for Variable Name","Variable Name should follow limitations of SAS XPORT format v5. It should not exceed 8 characters and cannot contain characters other than letters in upper case, numbers, or underscores. It cannot start with a number.","Format",""
"SD1475","16","Variable label length is greater than 40 characters","Variable Label should follow limitations of SAS XPORT format v5. It should not exceed 40 characters.","Format",""