"Code","Codelist Code","Codelist Extensible (Yes/No)","Codelist Name","CDISC Submission Value","CDISC Synonym(s)","CDISC Definition","NCI Preferred Term","Standard and Date"
"C188714",,,"DDF Activity Attribute Terminology","DDF Activity Attribute Terminology","DDF Activity Attribute Terminology","A terminology value set relevant to the attributes of the activity.","CDISC DDF Activity Attribute Terminology","DDF CT 2024-03-29"
"C70960","C188714",,"DDF Activity Attribute Terminology","Clinical Study Activity Description",,"The textual representation of the study activity.","Clinical Study Activity Description","DDF CT 2024-03-29"
"C188842","C188714",,"DDF Activity Attribute Terminology","Clinical Study Activity Name",,"The literal identifier (i.e., distinctive designation) of the clinical study activity.","Clinical Study Activity Name","DDF CT 2024-03-29"
"C201308","C188714",,"DDF Activity Attribute Terminology","Study Activity is Conditional Reason",,"The explanation for why the study activity is subject to or dependent upon something else.","Study Activity is Conditional Reason","DDF CT 2024-03-29"
"C201307","C188714",,"DDF Activity Attribute Terminology","Study Activity is Conditional",,"An indication as to whether the study activity is subject to or dependent upon something else.","Study Activity is Conditional Indicator","DDF CT 2024-03-29"
"C201310","C188714",,"DDF Activity Attribute Terminology","Study Activity is Optional Reason",,"The explanation for why the study activity is available to be performed but is not obligatory.","Study Activity is Optional Reason","DDF CT 2024-03-29"
"C201309","C188714",,"DDF Activity Attribute Terminology","Study Activity is Optional",,"An indication as to whether the study activity is available to be performed but is not obligatory.","Study Activity is Optional Indicator","DDF CT 2024-03-29"
"C201253",,,"DDF Address Attribute Terminology","DDF Address Attribute Terminology","DDF Address Attribute Terminology","A terminology value set relevant to the attributes of the address.","CDISC DDF Address Attribute Terminology","DDF CT 2024-03-29"
"C201311","C201253",,"DDF Address Attribute Terminology","Address Full Text",,"A standardized representation of the complete set of components denoting the physical address of the person, business, building, or organization.","Address Full Text","DDF CT 2024-03-29"
"C25690","C201253",,"DDF Address Attribute Terminology","Address Line",,"The street name and number, building number, apartment or unit number, or post office box number where an entity is physically located.","Street Address","DDF CT 2024-03-29"
"C25160","C201253",,"DDF Address Attribute Terminology","City",,"A relatively large and/or densely populated area of human habitation with administrative or legal status that may be specified as a component of a postal address.","City","DDF CT 2024-03-29"
"C25464","C201253",,"DDF Address Attribute Terminology","Country",,"A sovereign nation occupying a distinct territory and ruled by an autonomous government.","Country","DDF CT 2024-03-29"
"C176229","C201253",,"DDF Address Attribute Terminology","District",,"An administrative or territorial division of a city, town, county, parish, state, country, or other locality based on a shared characteristic.","District","DDF CT 2024-03-29"
"C25621","C201253",,"DDF Address Attribute Terminology","Postal Code",,"An alphanumeric code assigned to a mail delivery area.","Postal Code","DDF CT 2024-03-29"
"C87194","C201253",,"DDF Address Attribute Terminology","State",,"A sub-division of a country that forms part of a federal union. States are usually, but not always, more autonomous than provinces and may have different laws from the central government.","State","DDF CT 2024-03-29"
"C188720",,,"DDF Analysis Population Attribute Terminology","DDF Analysis Population Attribute Terminology","DDF Analysis Population Attribute Terminology","A terminology value set relevant to the attributes of the analysis population.","CDISC DDF Analysis Population Attribute Terminology","DDF CT 2024-03-29"
"C188854","C188720",,"DDF Analysis Population Attribute Terminology","Target Study Population for Analysis Description",,"The textual representation of the study population for analysis.","Target Study Population for Analysis Description","DDF CT 2024-03-29"
"C201254",,,"DDF Biomedical Concept Attribute Terminology","DDF Biomedical Concept Attribute Terminology","DDF Biomedical Concept Attribute Terminology","A terminology value set relevant to the attributes of the biomedical concept.","CDISC DDF Biomedical Concept Attribute Terminology","DDF CT 2024-03-29"
"C201312","C201254",,"DDF Biomedical Concept Attribute Terminology","Biomedical Concept Name",,"The literal identifier (i.e., distinctive designation) of the biomedical concept.","Biomedical Concept Name","DDF CT 2024-03-29"
"C201313","C201254",,"DDF Biomedical Concept Attribute Terminology","Biomedical Concept Reference",,"A citation to an authoritative source for a biomedical concept.","Biomedical Concept Reference","DDF CT 2024-03-29"
"C201314","C201254",,"DDF Biomedical Concept Attribute Terminology","Biomedical Concept Synonym",,"A word or an expression that serves as a figurative, symbolic, or exact substitute for a biomedical concept, and which has the same meaning.","Biomedical Concept Synonym","DDF CT 2024-03-29"
"C201255",,,"DDF Biomedical Concept Category Attribute Terminology","DDF Biomedical Concept Category Attribute Terminology","DDF Biomedical Concept Category Attribute Terminology","A terminology value set relevant to the attributes of the biomedical concept category.","CDISC DDF Biomedical Concept Category Attribute Terminology","DDF CT 2024-03-29"
"C201315","C201255",,"DDF Biomedical Concept Category Attribute Terminology","Biomedical Concept Category Code",,"A symbol or combination of symbols which is assigned to the biomedical concept category.","Biomedical Concept Category Code","DDF CT 2024-03-29"
"C201316","C201255",,"DDF Biomedical Concept Category Attribute Terminology","Biomedical Concept Category Description",,"The textual representation of the biomedical concept category.","Biomedical Concept Category Description","DDF CT 2024-03-29"
"C201317","C201255",,"DDF Biomedical Concept Category Attribute Terminology","Biomedical Concept Category Name",,"The literal identifier (i.e., distinctive designation) of the biomedical concept category.","Biomedical Concept Category Name","DDF CT 2024-03-29"
"C201256",,,"DDF Biomedical Concept Property Attribute Terminology","DDF Biomedical Concept Property Attribute Terminology","DDF Biomedical Concept Property Attribute Terminology","A terminology value set relevant to the attributes of the biomedical concept property.","CDISC DDF Biomedical Concept Property Attribute Terminology","DDF CT 2024-03-29"
"C201318","C201256",,"DDF Biomedical Concept Property Attribute Terminology","Biomedical Concept Property Concept Code",,"A concept unique identifier assigned to a biomedical concept property that points to the meaning of that biomedical concept property.","Biomedical Concept Property Concept Code","DDF CT 2024-03-29"
"C202496","C201256",,"DDF Biomedical Concept Property Attribute Terminology","Biomedical Concept Property Enabled Indicator",,"An indication as to whether the biomedical concept property is activated for use within a given usage context for a biomedical concept.","Biomedical Concept Property Enabled Indicator","DDF CT 2024-03-29"
"C202494","C201256",,"DDF Biomedical Concept Property Attribute Terminology","Biomedical Concept Property Name",,"The literal identifier (i.e., distinctive designation) of the biomedical concept property.","Biomedical Concept Property Name","DDF CT 2024-03-29"
"C202495","C201256",,"DDF Biomedical Concept Property Attribute Terminology","Biomedical Concept Property Required Indicator",,"An indication as to whether the biomedical concept property is required.","Biomedical Concept Property Required Indicator","DDF CT 2024-03-29"
"C201319","C201256",,"DDF Biomedical Concept Property Attribute Terminology","Biomedical Concept Property Response Data Type",,"The structural format of the biomedical concept property response value. The datatype is carried in the attribute and influences the set of allowable values the attribute may assume. (After HL7)","Biomedical Concept Property Response Data Type","DDF CT 2024-03-29"
"C201257",,,"DDF Biomedical Concept Surrogate Attribute Terminology","DDF Biomedical Concept Surrogate Attribute Terminology","DDF Biomedical Concept Surrogate Attribute Terminology","A terminology value set relevant to the attributes of the biomedical concept surrogate.","CDISC DDF Biomedical Concept Surrogate Attribute Terminology","DDF CT 2024-03-29"
"C201320","C201257",,"DDF Biomedical Concept Surrogate Attribute Terminology","Biomedical Concept Surrogate Description",,"The textual representation of the biomedical concept surrogate.","Biomedical Concept Surrogate Description","DDF CT 2024-03-29"
"C201321","C201257",,"DDF Biomedical Concept Surrogate Attribute Terminology","Biomedical Concept Surrogate Reference",,"A citation to an authoritative source for a biomedical concept surrogate.","Biomedical Concept Surrogate Reference","DDF CT 2024-03-29"
"C188699",,,"DDF Clinical Study Attribute Terminology","DDF Clinical Study Attribute Terminology","DDF Clinical Study Attribute Terminology","A terminology value set relevant to the attributes of the clinical study.","CDISC DDF Clinical Study Attribute Terminology","DDF CT 2024-03-29"
"C201322","C188699",,"DDF Clinical Study Attribute Terminology","Business Therapeutic Areas",,"A therapeutic area classification based on the structure and operations of the business unit.","Business Therapeutic Areas","DDF CT 2024-03-29"
"C94108","C188699",,"DDF Clinical Study Attribute Terminology","Study Acronym","Trial Acronym","A word or words formed from the beginning letters or a combination of syllables and letters of a compound term, which identifies a clinical study.","Study Protocol Version Acronym","DDF CT 2024-03-29"
"C94122","C188699",,"DDF Clinical Study Attribute Terminology","Study Rationale","Study Purpose","A statement describing the overall rationale of the study. This field describes the contribution of this study to product development, i.e., what knowledge is being contributed from the conduct of this study.","Study Protocol Version Purpose Statement","DDF CT 2024-03-29"
"C49802","C188699",,"DDF Clinical Study Attribute Terminology","Study Title","Official Study Title; Study Title; Trial Title","The sponsor-defined name of the clinical study.","Trial Title","DDF CT 2024-03-29"
"C142175","C188699",,"DDF Clinical Study Attribute Terminology","Study Type Classification","Study Type; Study Type Classification","The nature of the investigation for which study information is being collected. (After clinicaltrials.gov)","Study Type","DDF CT 2024-03-29"
"C188816","C188699",,"DDF Clinical Study Attribute Terminology","Study Version",,"A plan at a particular point in time for a study.","Study Version","DDF CT 2024-03-29"
"C48281","C188699",,"DDF Clinical Study Attribute Terminology","Trial Phase","Trial Phase; Trial Phase Classification","A step in the clinical research and development of a therapy from initial clinical trials to post-approval studies. NOTE: Clinical trials are generally categorized into four (sometimes five) phases. A therapeutic intervention may be evaluated in two or more phases simultaneously in different trials, and some trials may overlap two different phases. [21 CFR section 312.21; After ICH Topic E8 NOTE FOR GUIDANCE ON GENERAL CONSIDERATIONS FOR CLINICAL TRIALS, CPMP/ICH/291/95 March 1998]","Trial Phase","DDF CT 2024-03-29"
"C188722",,,"DDF Code Attribute Terminology","DDF Code Attribute Terminology","DDF Code Attribute Terminology","A terminology value set relevant to the attributes of the code.","CDISC DDF Code Attribute Terminology","DDF CT 2024-03-29"
"C188859","C188722",,"DDF Code Attribute Terminology","Code System Name",,"The literal identifier (i.e., distinctive designation) of the system used to assign and/or manage codes.","Code System Name","DDF CT 2024-03-29"
"C188868","C188722",,"DDF Code Attribute Terminology","Code System Version",,"The version of the code system.","Coding System Version","DDF CT 2024-03-29"
"C188858","C188722",,"DDF Code Attribute Terminology","Code Value",,"The literal value of a code.","Code Value","DDF CT 2024-03-29"
"C188861","C188722",,"DDF Code Attribute Terminology","Decode",,"Standardized or dictionary-derived human readable text associated with a code.","Decode Text","DDF CT 2024-03-29"
"C188713",,,"DDF Encounter Attribute Terminology","DDF Encounter Attribute Terminology","DDF Encounter Attribute Terminology","A terminology value set relevant to the attributes of the encounter.","CDISC DDF Encounter Attribute Terminology","DDF CT 2024-03-29"
"C188836","C188713",,"DDF Encounter Attribute Terminology","Clinical Encounter Description",,"The textual representation of the protocol-defined clinical encounter.","Clinical Encounter Description","DDF CT 2024-03-29"
"C171010","C188713",,"DDF Encounter Attribute Terminology","Clinical Encounter Name",,"The literal identifier (i.e., distinctive designation) for a protocol-defined clinical encounter.","Clinical Encounter Name","DDF CT 2024-03-29"
"C188839","C188713",,"DDF Encounter Attribute Terminology","Clinical Encounter Type",,"A characterization or classification of contact between subject/patient and healthcare practitioner/researcher, during which an assessment or activity is performed.","Clinical Encounter Type","DDF CT 2024-03-29"
"C188841","C188713",,"DDF Encounter Attribute Terminology","Contact Mode",,"The means by which an interaction occurs between the subject/participant and person or entity (e.g., a device).","Contact Mode","DDF CT 2024-03-29"
"C188840","C188713",,"DDF Encounter Attribute Terminology","Environmental Setting",,"The environment/setting where the event, intervention, or finding occurred.","Environmental Setting","DDF CT 2024-03-29"
"C188838","C188713",,"DDF Encounter Attribute Terminology","Next Encounter Identifier",,"A system identifier assigned to a clinical encounter that occurs immediately after the current clinical encounter.","Next Clinical Encounter Identifier","DDF CT 2024-03-29"
"C188837","C188713",,"DDF Encounter Attribute Terminology","Previous Encounter Identifier",,"A system identifier assigned to a clinical encounter that occurs immediately prior to the current clinical encounter.","Previous Clinical Encounter Identifier","DDF CT 2024-03-29"
"C188708",,,"DDF Endpoint Attribute Terminology","DDF Endpoint Attribute Terminology","DDF Endpoint Attribute Terminology","A terminology value set relevant to the attributes of the endpoint.","CDISC DDF Endpoint Attribute Terminology","DDF CT 2024-03-29"
"C188824","C188708",,"DDF Endpoint Attribute Terminology","Study Endpoint Description",,"The textual representation of the study endpoint.","Study Endpoint Description","DDF CT 2024-03-29"
"C188826","C188708",,"DDF Endpoint Attribute Terminology","Study Endpoint Level",,"A characterization or classification of the study endpoint that determines its category of importance relative to other study endpoints.","Study Endpoint Level","DDF CT 2024-03-29"
"C188825","C188708",,"DDF Endpoint Attribute Terminology","Study Endpoint Purpose Description",,"The textual representation of the study endpoint purpose.","Study Endpoint Purpose Description","DDF CT 2024-03-29"
"C188698",,,"DDF Entity Terminology","DDF Entity Terminology","DDF Entity Terminology","A terminology value set relevant to the entities within the CDISC digital data flow (DDF) model.","CDISC DDF Entities Terminology","DDF CT 2024-03-29"
"C25407","C188698",,"DDF Entity Terminology","Address",,"A standardized representation of the location of a person, business, building, or organization. (NCI)","Address","DDF CT 2024-03-29"
"C201344","C188698",,"DDF Entity Terminology","Alias Code",,"An alternative symbol or combination of symbols which is assigned to the members of a collection.","Alias Code","DDF CT 2024-03-29"
"C201346","C188698",,"DDF Entity Terminology","Biomedical Concept Category",,"A grouping of biomedical concepts based on some commonality or by user defined characteristics.","Biomedical Concept Category","DDF CT 2024-03-29"
"C202493","C188698",,"DDF Entity Terminology","Biomedical Concept Property",,"A characteristic from a set of characteristics used to define a biomedical concept.","Biomedical Concept Property","DDF CT 2024-03-29"
"C201345","C188698",,"DDF Entity Terminology","Biomedical Concept",,"A unit of biomedical knowledge created from a unique combination of characteristics that include implementation details like variables and terminologies, used as building blocks for standardized, hierarchically structured clinical research information.","Biomedical Concept","DDF CT 2024-03-29"
"C142427","C188698",,"DDF Entity Terminology","Clinical Encounter",,"Contact between subject/patient and healthcare practitioner/researcher, during which an assessment or activity is performed. Contact may be physical or virtual.","Clinical Encounter","DDF CT 2024-03-29"
"C15206","C188698",,"DDF Entity Terminology","Clinical Study",,"A clinical study involves research using human volunteers (also called participants) that is intended to add to medical knowledge. There are two main types of clinical studies: clinical trials (also called interventional studies) and observational studies. [ClinicalTrials.gov] See also clinical trial. (CDISC Glossary)","Clinical Study","DDF CT 2024-03-29"
"C25162","C188698",,"DDF Entity Terminology","Code",,"A symbol or combination of symbols which is assigned to the members of a collection.","Code","DDF CT 2024-03-29"
"C41184","C188698",,"DDF Entity Terminology","Disease/Condition Indication",,"A health problem or disease that is identified as likely to be benefited by a therapy being studied in clinical trials.","Indication","DDF CT 2024-03-29"
"C188813","C188698",,"DDF Entity Terminology","Estimand",,"A precise description of the treatment effect reflecting the clinical question posed by a given clinical trial objective. It summarises at a population level what the outcomes would be in the same patients under different treatment conditions being compared. (ICH E9 R1 Addendum)","Estimand","DDF CT 2024-03-29"
"C41161","C188698",,"DDF Entity Terminology","Experimental Intervention","Investigational Interventional; Investigational Therapy or Treatment","The drug, device, therapy, or process under investigation in a clinical study that is believed to have an effect on outcomes of interest in a study (e.g., health-related quality of life, efficacy, safety, pharmacoeconomics). [After https://grants.nih.gov/grants/policy/faq_clinical_trial_definition.htm#5224]","Protocol Agent","DDF CT 2024-03-29"
"C188815","C188698",,"DDF Entity Terminology","Intercurrent Event",,"An event(s) occurring after treatment initiation that affects either the interpretation or the existence of the measurements associated with the clinical question of interest. (ICH E9 Addendum on Estimands)","Intercurrent Event","DDF CT 2024-03-29"
"C19711","C188698",,"DDF Entity Terminology","Organization",,"A formalized group of persons or other organizations collected together for a common purpose (such as administrative, legal, political) and the infrastructure to carry out that purpose. (BRIDG)","Professional Organization or Group","DDF CT 2024-03-29"
"C98769","C188698",,"DDF Entity Terminology","Procedure","Medical Procedure","Any activity performed by manual and/or instrumental means for the purpose of diagnosis, assessment, therapy, prevention, or palliative care.","Physical Medical Procedure","DDF CT 2024-03-29"
"C201347","C188698",,"DDF Entity Terminology","Response Code",,"A symbol or combination of symbols representing the response to the question.","Response Code","DDF CT 2024-03-29"
"C201349","C188698",,"DDF Entity Terminology","Schedule Timeline Exit",,"To go out of or leave the schedule timeline.","Schedule Timeline Exit","DDF CT 2024-03-29"
"C201348","C188698",,"DDF Entity Terminology","Schedule Timeline",,"A chronological schedule of planned temporal events.","Schedule Timeline","DDF CT 2024-03-29"
"C201350","C188698",,"DDF Entity Terminology","Scheduled Activity Instance",,"A scheduled occurrence of an activity event.","Scheduled Activity Instance","DDF CT 2024-03-29"
"C201351","C188698",,"DDF Entity Terminology","Scheduled Decision Instance",,"A scheduled occurrence of a decision event.","Scheduled Decision Instance","DDF CT 2024-03-29"
"C201299","C188698",,"DDF Entity Terminology","Scheduled Instance",,"A scheduled occurrence of a temporal event.","Scheduled Instance","DDF CT 2024-03-29"
"C71473","C188698",,"DDF Entity Terminology","Study Activity",,"An action, undertaking, or event, which is anticipated to be performed or observed, or was performed or observed, according to the study protocol during the execution of the study.","Study Activity","DDF CT 2024-03-29"
"C174447","C188698",,"DDF Entity Terminology","Study Arm","Arm","A planned pathway assigned to the subject as they progress through the study, usually referred to by a name that reflects one or more treatments, exposures, and/or controls included in the path.","Study Arm","DDF CT 2024-03-29"
"C188810","C188698",,"DDF Entity Terminology","Study Design Cell",,"A partitioning of a study arm into individual pieces, which are associated with an epoch and any number of sequential elements within that epoch.","Study Design Cell","DDF CT 2024-03-29"
"C142735","C188698",,"DDF Entity Terminology","Study Design Element",,"A basic building block for time within a clinical study comprising the following characteristics: a description of what happens to the subject during the element; a definition of the start of the element; a rule for ending the element.","Trial Design Element","DDF CT 2024-03-29"
"C15320","C188698",,"DDF Entity Terminology","Study Design",,"A plan detailing how a study will be performed in order to represent the phenomenon under examination, to answer the research questions that have been asked, and informing the statistical approach.","Study Design","DDF CT 2024-03-29"
"C25212","C188698",,"DDF Entity Terminology","Study Endpoint",,"A defined variable intended to reflect an outcome of interest that is statistically analyzed to address a particular research question. NOTE: A precise definition of an endpoint typically specifies the type of assessments made, the timing of those assessments, the assessment tools used, and possibly other details, as applicable, such as how multiple assessments within an individual are to be combined. [After BEST Resource] (CDISC Glossary)","End Point","DDF CT 2024-03-29"
"C71738","C188698",,"DDF Entity Terminology","Study Epoch",,"A named time period defined in the protocol, wherein a study activity is specified and unchanging throughout the interval, to support a study-specific purpose.","Clinical Trial Epoch","DDF CT 2024-03-29"
"C83082","C188698",,"DDF Entity Terminology","Study Identifier",,"A sequence of characters used to identify, name, or characterize the study.","Study Identifier","DDF CT 2024-03-29"
"C142450","C188698",,"DDF Entity Terminology","Study Objective",,"The reason for performing a study in terms of the scientific questions to be answered by the analysis of data collected during the study.","Clinical Trial Objective","DDF CT 2024-03-29"
"C93490","C188698",,"DDF Entity Terminology","Study Protocol Version",,"A plan at a particular point in time for a formal investigation to assess the utility, impact, pharmacological, physiological, and/or psychological effects of a particular treatment, procedure, drug, device, biologic, food product, cosmetic, care plan, or subject characteristic. (BRIDG)","Study Protocol Version","DDF CT 2024-03-29"
"C188814","C188698",,"DDF Entity Terminology","Target Study Population for Analysis",,"A target study population on which an analysis is performed. These may be represented by the entire study population, a subgroup defined by a particular characteristic measured at baseline, or a principal stratum defined by the occurrence (or non-occurrence, depending on context) of a specific intercurrent event. (ICH E9 R1 Addendum)","Target Study Population for Analysis","DDF CT 2024-03-29"
"C142728","C188698",,"DDF Entity Terminology","Target Study Population","Target Population","The population within the general population for which the study results can be generalized.","Target Study Population","DDF CT 2024-03-29"
"C80484","C188698",,"DDF Entity Terminology","Timing",,"The chronological relationship between temporal events.","Timing","DDF CT 2024-03-29"
"C82567","C188698",,"DDF Entity Terminology","Transition Rule",,"A guide that governs the allocation of subjects to operational options at a discrete decision point or branch (e.g., assignment to a particular arm, discontinuation) within a clinical trial plan.","Transition Rule","DDF CT 2024-03-29"
"C188719",,,"DDF Estimand Attribute Terminology","DDF Estimand Attribute Terminology","DDF Estimand Attribute Terminology","A terminology value set relevant to the attributes of the estimand.","CDISC DDF Estimand Attribute Terminology","DDF CT 2024-03-29"
"C188853","C188719",,"DDF Estimand Attribute Terminology","Population-Level Summary",,"A synopsis of the clinical endpoint of interest within the analysis target study population.","Population-Level Summary","DDF CT 2024-03-29"
"C201323","C188719",,"DDF Estimand Attribute Terminology","Variable of Interest",,"The variable identified as the focus for developing the estimand.","Variable of Interest for the Estimand","DDF CT 2024-03-29"
"C188705",,,"DDF Indication Attribute Terminology","DDF Indication Attribute Terminology","DDF Indication Attribute Terminology","A terminology value set relevant to the attributes of the disease indication.","CDISC DDF Indication Attribute Terminology","DDF CT 2024-03-29"
"C188822","C188705",,"DDF Indication Attribute Terminology","Disease Indication Code",,"A short sequence of characters that represents the disease indication.","Disease Indication Code","DDF CT 2024-03-29"
"C112038","C188705",,"DDF Indication Attribute Terminology","Trial Disease/Condition Indication Description","Indication for Use; Trial Disease/Condition Indication; Trial Disease/Condition Indication Description","The textual representation of the condition, disease or disorder that the clinical trial is intended to investigate or address.","Trial Indication","DDF CT 2024-03-29"
"C188721",,,"DDF Intercurrent Event Attribute Terminology","DDF Intercurrent Event Attribute Terminology","DDF Intercurrent Event Attribute Terminology","A terminology value set relevant to the attributes of the intercurrent event.","CDISC DDF Intercurrent Event Attribute Terminology","DDF CT 2024-03-29"
"C188856","C188721",,"DDF Intercurrent Event Attribute Terminology","Intercurrent Event Description",,"The textual representation of the intercurrent event.","Intercurrent Event Description","DDF CT 2024-03-29"
"C188855","C188721",,"DDF Intercurrent Event Attribute Terminology","Intercurrent Event Name",,"The literal identifier (i.e., distinctive designation) of the intercurrent event.","Intercurrent Event Name","DDF CT 2024-03-29"
"C188857","C188721",,"DDF Intercurrent Event Attribute Terminology","Intercurrent Event Strategy",,"A textual description of the planned strategy to manage and/or mitigate intercurrent events.","Intercurrent Event Strategy","DDF CT 2024-03-29"
"C188704",,,"DDF Investigational Interventions Attribute Terminology","DDF Investigational Interventions Attribute Terminology","DDF Investigational Interventions Attribute Terminology","A terminology value set relevant to the attributes of the investigational interventions.","CDISC DDF Investigational Interventions Attribute Terminology","DDF CT 2024-03-29"
"C177931","C188704",,"DDF Investigational Interventions Attribute Terminology","Intervention Description",,"The textual representation of the study intervention.","Intervention Description","DDF CT 2024-03-29"
"C188821","C188704",,"DDF Investigational Interventions Attribute Terminology","Investigational Intervention Code",,"A short sequence of characters that represents the investigational intervention.","Investigational Intervention Code","DDF CT 2024-03-29"
"C188707",,,"DDF Objective Attribute Terminology","DDF Objective Attribute Terminology","DDF Objective Attribute Terminology","A terminology value set relevant to the attributes of the objective.","CDISC DDF Objective Attribute Terminology","DDF CT 2024-03-29"
"C94090","C188707",,"DDF Objective Attribute Terminology","Study Objective Description",,"The textual representation of the study objective. (BRIDG)","Study Objective Description","DDF CT 2024-03-29"
"C188823","C188707",,"DDF Objective Attribute Terminology","Study Objective Level",,"A characterization or classification of the study objective that determines its category of importance relative to other study objectives.","Study Objective Level","DDF CT 2024-03-29"
"C188702",,,"DDF Organization Attribute Terminology","DDF Organization Attribute Terminology","DDF Organization Attribute Terminology","A terminology value set relevant to the attributes of the organization.","CDISC DDF Organization Attribute Terminology","DDF CT 2024-03-29"
"C188819","C188702",,"DDF Organization Attribute Terminology","Identifier Provider Organization Name",,"The name of the organization that provides the identifier for the entity.","Identifier Provider Organization Name","DDF CT 2024-03-29"
"C93401","C188702",,"DDF Organization Attribute Terminology","Organization Identifier",,"A unique symbol that establishes identity of the organization. (BRIDG)","Organization Identifier","DDF CT 2024-03-29"
"C93874","C188702",,"DDF Organization Attribute Terminology","Organization Name",,"A non-unique textual identifier for the organization. (BRIDG)","Organization Name","DDF CT 2024-03-29"
"C188820","C188702",,"DDF Organization Attribute Terminology","Organization Type",,"A characterization or classification of the formalized group of persons or other organizations collected together for a common purpose (such as administrative, legal, political) and the infrastructure to carry out that purpose.","Organization Type","DDF CT 2024-03-29"
"C188716",,,"DDF Procedure Attribute Terminology","DDF Procedure Attribute Terminology","DDF Procedure Attribute Terminology","A terminology value set relevant to the attributes of the procedure.","CDISC DDF Procedure Attribute Terminology","DDF CT 2024-03-29"
"C154626","C188716",,"DDF Procedure Attribute Terminology","Procedure Code",,"A symbol or combination of symbols which is assigned to medical procedure.","Procedure Code","DDF CT 2024-03-29"
"C201324","C188716",,"DDF Procedure Attribute Terminology","Procedure Description",,"The textual representation of the procedure.","Procedure Description","DDF CT 2024-03-29"
"C201325","C188716",,"DDF Procedure Attribute Terminology","Procedure Name",,"The literal identifier (i.e., distinctive designation) of the procedure.","Procedure Name","DDF CT 2024-03-29"
"C188848","C188716",,"DDF Procedure Attribute Terminology","Procedure Type",,"A characterization or classification of the study procedure.","Study Procedure Type","DDF CT 2024-03-29"
"C201327","C188716",,"DDF Procedure Attribute Terminology","Study Procedure is Conditional Reason",,"The explanation for why the study procedure is subject to or dependent upon something else.","Study Procedure is Conditional Reason","DDF CT 2024-03-29"
"C201326","C188716",,"DDF Procedure Attribute Terminology","Study Procedure is Conditional",,"An indication as to whether the study procedure is subject to or dependent upon something else.","Study Procedure is Conditional Indicator","DDF CT 2024-03-29"
"C201329","C188716",,"DDF Procedure Attribute Terminology","Study Procedure is Optional Reason",,"The explanation for why the study procedure is available to be performed but is not obligatory.","Study Procedure is Optional Reason","DDF CT 2024-03-29"
"C201328","C188716",,"DDF Procedure Attribute Terminology","Study Procedure is Optional",,"An indication as to whether the study procedure is available to be performed but is not obligatory.","Study Procedure is Optional Indicator","DDF CT 2024-03-29"
"C201258",,,"DDF Response Code Attribute Terminology","DDF Response Code Attribute Terminology","DDF Response Code Attribute Terminology","A terminology value set relevant to the attributes of the response code.","CDISC DDF Response Code Attribute Terminology","DDF CT 2024-03-29"
"C25162","C201258",,"DDF Response Code Attribute Terminology","Code",,"A symbol or combination of symbols which is assigned to the members of a collection.","Code","DDF CT 2024-03-29"
"C201330","C201258",,"DDF Response Code Attribute Terminology","Response Code Enabled Indicator",,"An indication as to whether the response code is activated for use within a given usage context.","Response Code Enabled Indicator","DDF CT 2024-03-29"
"C201259",,,"DDF Schedule Timeline Attribute Terminology","DDF Schedule Timeline Attribute Terminology","DDF Schedule Timeline Attribute Terminology","A terminology value set relevant to the attributes of the schedule timeline.","CDISC DDF Schedule Timeline Attribute Terminology","DDF CT 2024-03-29"
"C201331","C201259",,"DDF Schedule Timeline Attribute Terminology","Main Timeline Indicator",,"An indication as to whether the timeline or timeline component is part of the central or principal timeline.","Main Timeline Indicator","DDF CT 2024-03-29"
"C201332","C201259",,"DDF Schedule Timeline Attribute Terminology","Schedule Timeline Description",,"The textual representation of the schedule timeline.","Schedule Timeline Description","DDF CT 2024-03-29"
"C201333","C201259",,"DDF Schedule Timeline Attribute Terminology","Schedule Timeline Entry Condition",,"A logical evaluation on which rests the validity of entry into a schedule timeline.","Schedule Timeline Entry Condition","DDF CT 2024-03-29"
"C201334","C201259",,"DDF Schedule Timeline Attribute Terminology","Schedule Timeline Name",,"The literal identifier (i.e., distinctive designation) of the schedule timeline.","Schedule Timeline Name","DDF CT 2024-03-29"
"C201260",,,"DDF Scheduled Decision Instance Attribute Terminology","DDF Scheduled Decision Instance Attribute Terminology","DDF Scheduled Decision Instance Attribute Terminology","A terminology value set relevant to the attributes of the scheduled decision instance.","CDISC DDF Scheduled Decision Instance Attribute Terminology","DDF CT 2024-03-29"
"C201335","C201260",,"DDF Scheduled Decision Instance Attribute Terminology","Condition Assignments",,"An allotting or appointment to a set of conditions that are to be met in order to make a logical decision.","Condition Assignments","DDF CT 2024-03-29"
"C201261",,,"DDF Scheduled Instance Attribute Terminology","DDF Scheduled Instance Attribute Terminology","DDF Scheduled Instance Attribute Terminology","A terminology value set relevant to the attributes of the scheduled instance.","CDISC DDF Scheduled Instance Attribute Terminology","DDF CT 2024-03-29"
"C201336","C201261",,"DDF Scheduled Instance Attribute Terminology","Schedule Sequence Number",,"A numeral or string of numerals expressing a relative sequence of scheduled temporal events.","Schedule Sequence Number","DDF CT 2024-03-29"
"C201337","C201261",,"DDF Scheduled Instance Attribute Terminology","Scheduled Instance Type",,"A characterization or classification of the scheduled instance.","Scheduled Instance Type","DDF CT 2024-03-29"
"C188709",,,"DDF Study Arm Attribute Terminology","DDF Study Arm Attribute Terminology","DDF Study Arm Attribute Terminology","A terminology value set relevant to the attributes of the study Arm.","CDISC DDF Study Arm Attribute Terminology","DDF CT 2024-03-29"
"C188828","C188709",,"DDF Study Arm Attribute Terminology","Study Arm Data Origin Description",,"The textual representation of the study arm data origin.","Study Arm Data Origin Description","DDF CT 2024-03-29"
"C188829","C188709",,"DDF Study Arm Attribute Terminology","Study Arm Data Origin Type",,"A characterization or classification of the study arm with respect to where the study arm data originates.","Study Arm Data Origin Type","DDF CT 2024-03-29"
"C93728","C188709",,"DDF Study Arm Attribute Terminology","Study Arm Description","Arm Description","The textual representation of the arm for the study.","Arm Description","DDF CT 2024-03-29"
"C170984","C188709",,"DDF Study Arm Attribute Terminology","Study Arm Name",,"The literal identifier (i.e., distinctive designation) of the study arm.","Planned Study Arm Name","DDF CT 2024-03-29"
"C172457","C188709",,"DDF Study Arm Attribute Terminology","Study Arm Type","Arm Type","A characterization or classification of the study arm.","Study Arm Type","DDF CT 2024-03-29"
"C188703",,,"DDF Study Design Attribute Terminology","DDF Study Design Attribute Terminology","DDF Study Design Attribute Terminology","A terminology value set relevant to the attributes of the study design.","CDISC DDF Study Design Attribute Terminology","DDF CT 2024-03-29"
"C98746","C188703",,"DDF Study Design Attribute Terminology","Intervention Model Type","Intervention Model","The general design of the strategy for assigning interventions to participants in a clinical study. (clinicaltrials.gov)","Intervention Model","DDF CT 2024-03-29"
"C147139","C188703",,"DDF Study Design Attribute Terminology","Study Design Description","Overall Design; Study Design Description; Study Design Overview; Summary of Study Design","Summary description of the overall study plan and design, should include treatments studied, population studied, level and method of blinding/unmasking, kind of controls, method of assignment to treatment, sequence and duration of study periods, any safety, data monitoring or special steering or evaluation committees, and interim analyses. (ICH E3)","Study Design Description","DDF CT 2024-03-29"
"C201338","C188703",,"DDF Study Design Attribute Terminology","Study Design Name",,"The literal identifier (i.e., distinctive designation) of the study design.","Study Design Name","DDF CT 2024-03-29"
"C142705","C188703",,"DDF Study Design Attribute Terminology","Study Design Rationale",,"Reason(s) for choosing the study design. This may include reasons for the choice of control or comparator, as well as the scientific rationale for the study design.","Study Design Rationale","DDF CT 2024-03-29"
"C101302","C188703",,"DDF Study Design Attribute Terminology","Therapeutic Areas","Therapeutic Area","A categorization of a disease, disorder, or other condition based on common characteristics and often associated with a medical specialty focusing on research and development of specific therapeutic interventions for the purpose of treatment and prevention.","Therapeutic Area","DDF CT 2024-03-29"
"C49658","C188703",,"DDF Study Design Attribute Terminology","Trial Blinding Schema","Study Blinding Design; Study Blinding Schema; Study Masking Design; Trial Blinding Design; Trial Blinding Schema; Trial Masking Design","The type of experimental design used to describe the level of awareness of the study subjects and/ or study personnel as it relates to the respective intervention(s) or assessments being observed, received or administered.","Trial Blinding Schema","DDF CT 2024-03-29"
"C49652","C188703",,"DDF Study Design Attribute Terminology","Trial Intent Type","Trial Intent Type","The planned purpose of the therapy, device, or agent under study in the clinical trial.","Clinical Study by Intent","DDF CT 2024-03-29"
"C49660","C188703",,"DDF Study Design Attribute Terminology","Trial Type","Trial Scope; Trial Type","The nature of the interventional study for which information is being collected.","Trial Type","DDF CT 2024-03-29"
"C188706",,,"DDF Study Design Population Attribute Terminology","DDF Study Design Population Attribute Terminology","DDF Study Design Population Attribute Terminology","A terminology value set relevant to the attributes of the study design population.","CDISC DDF Study Design Population Attribute Terminology","DDF CT 2024-03-29"
"C49694","C188706",,"DDF Study Design Population Attribute Terminology","Planned Maximum Age of Subjects","Planned Maximum Age of Subjects","The anticipated maximum age of the subjects to be entered in a clinical trial. (NCI)","Planned Maximum Age of Subjects","DDF CT 2024-03-29"
"C49693","C188706",,"DDF Study Design Population Attribute Terminology","Planned Minimum Age of Subjects","Planned Minimum Age of Subjects","The anticipated minimum age of the subjects to be entered in a clinical trial. (NCI)","Planned Minimum Age of Subjects","DDF CT 2024-03-29"
"C49692","C188706",,"DDF Study Design Population Attribute Terminology","Planned Number of Participants","Anticipated Enrollment; Planned Enrollment; Planned Number of Subjects; Target Enrollment","The planned number of subjects to be entered in a clinical trial. (NCI)","Planned Subject Number","DDF CT 2024-03-29"
"C49696","C188706",,"DDF Study Design Population Attribute Terminology","Sex of Participants","Sex of Participants","The specific sex, either male, female, or mixed of the subject group being studied. (NCI)","Sex of Study Group","DDF CT 2024-03-29"
"C70834","C188706",,"DDF Study Design Population Attribute Terminology","Target Study Population Description",,"The textual representation of the study population.","Study Population Description","DDF CT 2024-03-29"
"C188711",,,"DDF Study Element Attribute Terminology","DDF Study Element Attribute Terminology","DDF Study Element Attribute Terminology","A terminology value set relevant to the attributes of the study element.","CDISC DDF Study Element Attribute Terminology","DDF CT 2024-03-29"
"C188834","C188711",,"DDF Study Element Attribute Terminology","Study Design Element Description",,"The textual representation of the study design element.","Study Design Element Description","DDF CT 2024-03-29"
"C188833","C188711",,"DDF Study Element Attribute Terminology","Study Design Element Name",,"The literal identifier (i.e., distinctive designation) of the study design element.","Study Design Element Name","DDF CT 2024-03-29"
"C201339","C188711",,"DDF Study Element Attribute Terminology","Transition End Rule",,"A criterion that establishes the end of a subject transition within a study workflow.","Transition End Rule","DDF CT 2024-03-29"
"C201340","C188711",,"DDF Study Element Attribute Terminology","Transition Start Rule",,"A criterion that establishes the beginning of a subject transition within a study workflow.","Transition Start Rule","DDF CT 2024-03-29"
"C188710",,,"DDF Study Epoch Attribute Terminology","DDF Study Epoch Attribute Terminology","DDF Study Epoch Attribute Terminology","A terminology value set relevant to the attributes of the study epoch.","CDISC DDF Study Epoch Attribute Terminology","DDF CT 2024-03-29"
"C188832","C188710",,"DDF Study Epoch Attribute Terminology","Next Epoch Identifier",,"A system identifier assigned to the epoch that occurs immediately after the current epoch.","Next Epoch Identifier","DDF CT 2024-03-29"
"C188831","C188710",,"DDF Study Epoch Attribute Terminology","Previous Epoch Identifier",,"A system identifier assigned to the epoch that occurs immediately prior to the current epoch.","Previous Epoch Identifier","DDF CT 2024-03-29"
"C93824","C188710",,"DDF Study Epoch Attribute Terminology","Study Epoch Description",,"The textual representation of the study epoch.","Epoch Description","DDF CT 2024-03-29"
"C93825","C188710",,"DDF Study Epoch Attribute Terminology","Study Epoch Name",,"The literal identifier (i.e., distinctive designation) of the study epoch, i.e., the named time period defined in the protocol, wherein a study activity is specified and unchanging throughout the interval, to support a study-specific purpose.","Epoch Name","DDF CT 2024-03-29"
"C188830","C188710",,"DDF Study Epoch Attribute Terminology","Study Epoch Type",,"A characterization or classification of the study epoch, i.e., the named time period defined in the protocol, wherein a study activity is specified and unchanging throughout the interval, to support a study-specific purpose.","Study Epoch Type","DDF CT 2024-03-29"
"C188701",,,"DDF Study Identifier Attribute Terminology","DDF Study Identifier Attribute Terminology","DDF Study Identifier Attribute Terminology","A terminology value set relevant to the attributes of the study identifier.","CDISC DDF Study Identifier Attribute Terminology","DDF CT 2024-03-29"
"C83082","C188701",,"DDF Study Identifier Attribute Terminology","Study Identifier",,"A sequence of characters used to identify, name, or characterize the study.","Study Identifier","DDF CT 2024-03-29"
"C188700",,,"DDF Study Protocol Version Attribute Terminology","DDF Study Protocol Version Attribute Terminology","DDF Study Protocol Version Attribute Terminology","A terminology value set relevant to the attributes of the study protocol version.","CDISC DDF Study Protocol Version Attribute Terminology","DDF CT 2024-03-29"
"C132345","C188700",,"DDF Study Protocol Version Attribute Terminology","Brief Protocol Title","Abbreviated Protocol Title","The short descriptive name for the protocol.","Brief Protocol Title","DDF CT 2024-03-29"
"C132346","C188700",,"DDF Study Protocol Version Attribute Terminology","Official Protocol Title",,"The formal descriptive name for the protocol.","Official Protocol Title","DDF CT 2024-03-29"
"C188818","C188700",,"DDF Study Protocol Version Attribute Terminology","Protocol Status",,"A condition of the protocol at a point in time with respect to its state of readiness for implementation.","Study Protocol Status","DDF CT 2024-03-29"
"C94105","C188700",,"DDF Study Protocol Version Attribute Terminology","Public Protocol Title",,"The descriptive name of the protocol that is intended for the lay public, written in easily understood language.","Study Protocol Document Version Public Title","DDF CT 2024-03-29"
"C132350","C188700",,"DDF Study Protocol Version Attribute Terminology","Scientific Protocol Title",,"A more extensive descriptive name of the protocol that is intended for medical professionals, written using medical and scientific language.","Scientific Protocol Title","DDF CT 2024-03-29"
"C188817","C188700",,"DDF Study Protocol Version Attribute Terminology","Study Protocol Amendment Effective Date",,"The date and time specifying when the protocol amendment takes effect or becomes operative.","Study Protocol Amendment Effective Date","DDF CT 2024-03-29"
"C132347","C188700",,"DDF Study Protocol Version Attribute Terminology","Study Protocol Amendment",,"A written description of a change(s) to, or formal clarification of, a protocol. (ICH E6)","Protocol Amendment","DDF CT 2024-03-29"
"C93490","C188700",,"DDF Study Protocol Version Attribute Terminology","Study Protocol Version",,"A plan at a particular point in time for a formal investigation to assess the utility, impact, pharmacological, physiological, and/or psychological effects of a particular treatment, procedure, drug, device, biologic, food product, cosmetic, care plan, or subject characteristic. (BRIDG)","Study Protocol Version","DDF CT 2024-03-29"
"C201262",,,"DDF Timing Attribute Terminology","DDF Timing Attribute Terminology","DDF Timing Attribute Terminology","A terminology value set relevant to the attributes of the timing.","CDISC DDF Timing Attribute Terminology","DDF CT 2024-03-29"
"C164648","C201262",,"DDF Timing Attribute Terminology","Timing Description",,"The textual representation of the chronological relationship between temporal events.","Timing Description","DDF CT 2024-03-29"
"C201297","C201262",,"DDF Timing Attribute Terminology","Timing Relative To From",,"The name of the reference event used to define the temporal relationship with another event.","Timing Relative To From Name","DDF CT 2024-03-29"
"C201298","C201262",,"DDF Timing Attribute Terminology","Timing Type",,"A characterization or classification of the chronological relationship between temporal events.","Timing Type","DDF CT 2024-03-29"
"C201341","C201262",,"DDF Timing Attribute Terminology","Timing Value",,"The temporal value of the chronological relationship between temporal events.","Timing Value","DDF CT 2024-03-29"
"C48921","C201262",,"DDF Timing Attribute Terminology","Timing Window",,"A time period, or other type of interval, during which a temporal event may be achieved, obtained, or observed.","Window","DDF CT 2024-03-29"
"C201342","C201262",,"DDF Timing Attribute Terminology","Timing Window, Lower",,"The earliest chronological value of an allowable period of time during which a temporal event takes place.","Lower Timing Window","DDF CT 2024-03-29"
"C201343","C201262",,"DDF Timing Attribute Terminology","Timing Window, Upper",,"The latest chronological value of an allowable period of time during which a temporal event takes place.","Upper Timing Window","DDF CT 2024-03-29"
"C188712",,,"DDF Transition Rule Attribute Terminology","DDF Transition Rule Attribute Terminology","DDF Transition Rule Attribute Terminology","A terminology value set relevant to the attributes of the transition rule.","CDISC DDF Transition Rule Attribute Terminology","DDF CT 2024-03-29"
"C188835","C188712",,"DDF Transition Rule Attribute Terminology","Transition Rule Description",,"The textual representation of the transition rule.","Transition Rule Description","DDF CT 2024-03-29"
"C188728",,,"Encounter Type Value Set Terminology","Encounter Type Value Set Terminology","Encounter Type Value Set Terminology","The terminology relevant to the encounter type.","CDISC DDF Encounter Type Value Set Terminology","DDF CT 2024-03-29"
"C25716","C188728",,"Encounter Type Value Set Terminology","Visit",,"The act of going to see some person or place or thing; it can cover a short or long period but refers to a non-permanent arrangement.","Visit","DDF CT 2024-03-29"
"C188726",,,"Endpoint Level Value Set Terminology","Endpoint Level Value Set Terminology","Endpoint Level Value Set Terminology","The terminology relevant to the endpoint level.","CDISC DDF Endpoint Level Value Set Terminology","DDF CT 2024-03-29"
"C170559","C188726",,"Endpoint Level Value Set Terminology","Exploratory Endpoint",,"Endpoint(s) that may include clinically important events that are expected to occur too infrequently to show a treatment effect or endpoints that for other reasons are thought to be less likely to show an effect but are included to explore new hypotheses. (After FDA-NIH Protocol Template)","Exploratory Endpoint","DDF CT 2024-03-29"
"C94496","C188726",,"Endpoint Level Value Set Terminology","Primary Endpoint",,"Endpoint(s) of greatest importance that is the basis for concluding whether the study met its objective(s) and provides a clinically relevant, valid, and reliable measure of the primary objective(s). (After FDA-NIH Protocol Template)","Primary Endpoint","DDF CT 2024-03-29"
"C139173","C188726",,"Endpoint Level Value Set Terminology","Secondary Endpoint",,"Endpoint(s) that may provide supportive information about the effect of the study intervention(s) on the primary endpoint or demonstrate additional effects on the disease or condition. (After FDA-NIH Protocol Template)","Secondary Endpoint","DDF CT 2024-03-29"
"C127262",,"Yes","Environmental Setting","SETTING","Environmental Setting","Terminology relevant to the surroundings or environment.","CDISC SDTM Environmental Setting Terminology","DDF CT 2024-03-29"
"C127785","C127262",,"Environmental Setting","CHILD CARE CENTER",,"An establishment that provides care for infants and children.","Childcare Center","DDF CT 2024-03-29"
"C51282","C127262",,"Environmental Setting","CLINIC",,"A health care facility where subjects or patients may receive assessments, procedures, or treatments that are provided by physicians and other healthcare providers.","Clinic","DDF CT 2024-03-29"
"C48953","C127262",,"Environmental Setting","FARM",,"A tract of land cultivated for the purpose of agricultural production or devoted to the raising and breeding of domestic animals.","Farm","DDF CT 2024-03-29"
"C102650","C127262",,"Environmental Setting","FIELD",,"A setting outside the clinic or a comparable health care facility, e.g. a doctor's office, the subject's home or workplace, a school, a public park, or a restaurant.","In the Field","DDF CT 2024-03-29"
"C21541","C127262",,"Environmental Setting","HEALTH FACILITY",,"The buildings and organizations where healthcare services are provided.","Healthcare Facility","DDF CT 2024-03-29"
"C18002","C127262",,"Environmental Setting","HOME",,"A person's place of residence.","Home","DDF CT 2024-03-29"
"C16696","C127262",,"Environmental Setting","HOSPITAL",,"An institution that provides medical, surgical, or psychiatric care and treatment for the sick or the injured.","Hospital","DDF CT 2024-03-29"
"C102647","C127262",,"Environmental Setting","HOUSEHOLD ENVIRONMENT",,"The area in which an individual lives.","Household Environment","DDF CT 2024-03-29"
"C41206","C127262",,"Environmental Setting","INSTITUTION",,"An established society, corporation, foundation or other organization founded and united for a specific purpose, e.g. for health-related research; also used to refer to a building or buildings occupied or used by such organization.","Institution","DDF CT 2024-03-29"
"C181529","C127262",,"Environmental Setting","MOTOR VEHICLE",,"A motorized conveyance for people and goods.","Motor Vehicle","DDF CT 2024-03-29"
"C102679","C127262",,"Environmental Setting","NON-HOUSEHOLD ENVIRONMENT",,"An area outside of that in which an individual lives.","Non-household Environment","DDF CT 2024-03-29"
"C181530","C127262",,"Environmental Setting","NOT IN CLINIC",,"Any environmental setting outside of a clinic.","Not In Clinic","DDF CT 2024-03-29"
"C16281","C127262",,"Environmental Setting","OUTPATIENT CLINIC",,"A medical care center that provides healthcare services on an outpatient basis.","Ambulatory Care Facility","DDF CT 2024-03-29"
"C85862","C127262",,"Environmental Setting","PRISON",,"An institution where persons are confined for punishment and to protect the public.","Correctional Institution","DDF CT 2024-03-29"
"C17118","C127262",,"Environmental Setting","SCHOOL",,"An educational institution.","School","DDF CT 2024-03-29"
"C85863","C127262",,"Environmental Setting","SHELTER",,"Temporary housing for displaced or at-risk persons.","Shelter","DDF CT 2024-03-29"
"C102712","C127262",,"Environmental Setting","SOCIAL SETTING",,"The surroundings or environment in which social activities occur.","Social Setting","DDF CT 2024-03-29"
"C17556","C127262",,"Environmental Setting","WORKSITE",,"Place or physical location of work or employment.","Worksite","DDF CT 2024-03-29"
"C99079",,"Yes","Epoch","EPOCH","Epoch","The name of the EPOCH.","CDISC SDTM Epoch Terminology","DDF CT 2024-03-29"
"C125938","C99079",,"Epoch","BASELINE",,"A period in a clinical study after eligibility has been met and before the start of treatment, at which baseline measurements are collected.","Baseline Epoch","DDF CT 2024-03-29"
"C102255","C99079",,"Epoch","BLINDED TREATMENT",,"A period in a clinical study during which subjects receive blinded therapeutic treatment.","Blinded Treatment Epoch","DDF CT 2024-03-29"
"C123452","C99079",,"Epoch","CONTINUATION TREATMENT","Continuation Phase","A period in a clinical study during which subjects receive continuation treatment.","Continuation Therapy Epoch","DDF CT 2024-03-29"
"C202578","C99079",,"Epoch","FOLLOW-UP",,"A period in a clinical study during which information about the health status of an individual is obtained after study interventions have concluded.","Follow-Up Epoch","DDF CT 2024-03-29"
"C123453","C99079",,"Epoch","INDUCTION TREATMENT","Induction Phase; Intensive Phase","A period in a clinical study during which subjects receive induction treatment.","Induction Therapy Epoch","DDF CT 2024-03-29"
"C202577","C99079",,"Epoch","LONG-TERM FOLLOW-UP",,"A period in a clinical study during which information about the health status of an individual is obtained long after study interventions have concluded.","Long-term Follow-up Epoch","DDF CT 2024-03-29"
"C165873","C99079",,"Epoch","OBSERVATION",,"A period in a clinical study during which subjects are observed, without any planned intervention.","Observation Study Epoch","DDF CT 2024-03-29"
"C102256","C99079",,"Epoch","OPEN LABEL TREATMENT",,"A period in a clinical study during which subjects receive open label therapeutic treatment.","Open Label Treatment Epoch","DDF CT 2024-03-29"
"C199844","C99079",,"Epoch","PRE-SCREENING",,"A period in a clinical study during which subjects are evaluated prior to entering the full screening period.","Pre-Screening Epoch","DDF CT 2024-03-29"
"C98779","C99079",,"Epoch","RUN-IN",,"A period in a clinical study that occurs after screening and before randomization, during which the subject is further evaluated and/or prepared for the commencement of the clinical study investigation.","Run-in Period","DDF CT 2024-03-29"
"C202487","C99079",,"Epoch","SCREENING",,"A period in a clinical study during which subjects are evaluated for participation in the study.","Screening Epoch","DDF CT 2024-03-29"
"C101526","C99079",,"Epoch","TREATMENT",,"A period in a study during which subjects are receiving investigational therapy or treatment.","Treatment Epoch","DDF CT 2024-03-29"
"C42872","C99079",,"Epoch","WASHOUT",,"A period of time during a study when a subject is taken off of the investigational therapy or treatment in order to reduce the amount of investigational product within the body.","Washout Period","DDF CT 2024-03-29"
"C99076",,"Yes","Intervention Model Response","INTMODEL","Intervention Model Response","A terminology codelist relevant to the trial design developed to compare treatment groups.","CDISC SDTM Intervention Model Terminology","DDF CT 2024-03-29"
"C82637","C99076",,"Intervention Model Response","CROSS-OVER",,"Participants receive one of two or more alternative intervention(s) during the initial epoch of the study and receive other intervention(s) during the subsequent epoch(s) of the study.","Crossover Study","DDF CT 2024-03-29"
"C82638","C99076",,"Intervention Model Response","FACTORIAL",,"Two or more interventions, each alone or in combination, are evaluated in parallel against a control group. This study design allows for the comparison of active drug to placebo, presence of drug-drug interactions, and comparison of active drugs against each other.","Factorial Study","DDF CT 2024-03-29"
"C82639","C99076",,"Intervention Model Response","PARALLEL",,"Participants are assigned to one of two or more treatment groups in parallel for the duration of the study.","Parallel Study","DDF CT 2024-03-29"
"C142568","C99076",,"Intervention Model Response","SEQUENTIAL",,"Groups of participants are assigned to receive interventions based on prior milestones being reached in the study. (clinicaltrials.gov)","Group Sequential Design","DDF CT 2024-03-29"
"C82640","C99076",,"Intervention Model Response","SINGLE GROUP",,"All trial participants are assigned to a single treatment group for the duration of the study.","Single Group Study","DDF CT 2024-03-29"
"C171445",,"Yes","Mode of Subject Contact","CNTMODE","Mode of Subject Contact","Terminology relevant to the means by which interaction occurs between the subject and person or entity.","CDISC SDTM Mode of Subject Contact Terminology","DDF CT 2024-03-29"
"C25170","C171445",,"Mode of Subject Contact","E-MAIL","Electronic Mail","Composing, sending, and receiving messages over electronic communication systems.","E-mail","DDF CT 2024-03-29"
"C175574","C171445",,"Mode of Subject Contact","IN PERSON","In-Person","An interaction that takes place in the physical presence of someone else.","In Person","DDF CT 2024-03-29"
"C177933","C171445",,"Mode of Subject Contact","IVRS","Interactive Voice Response System","A type of automated system in which individuals can access information menus containing pre-recorded or dynamically generated information with voice prompts, without the need for an agent or operator.","Interactive Voice Response System","DDF CT 2024-03-29"
"C70805","C171445",,"Mode of Subject Contact","LETTER",,"A written message addressed to a person or organization.","Letter","DDF CT 2024-03-29"
"C171525","C171445",,"Mode of Subject Contact","REMOTE AUDIO VIDEO",,"A form of remote communication by audio video technology.","Audio-Videoconferencing","DDF CT 2024-03-29"
"C171524","C171445",,"Mode of Subject Contact","REMOTE AUDIO",,"A form of remote communication by audio technology.","Audioconferencing","DDF CT 2024-03-29"
"C171533","C171445",,"Mode of Subject Contact","SHIPMENT CONFIRMED BY SIGNATURE",,"Receipt of shipped material was confirmed by signature.","Shipment Confirmed by Signature","DDF CT 2024-03-29"
"C171537","C171445",,"Mode of Subject Contact","TELEPHONE CALL",,"Communication by way of telephone.","Telephone Call","DDF CT 2024-03-29"
"C157352","C171445",,"Mode of Subject Contact","TEXT MESSAGE",,"A short electronic communication, usually sent and received by a mobile phone.","Text Message","DDF CT 2024-03-29"
"C188725",,,"Objective Level Value Set Terminology","Objective Level Value Set Terminology","Objective Level Value Set Terminology","The terminology relevant to the objective level.","CDISC DDF Objective Level Value Set Terminology","DDF CT 2024-03-29"
"C85826","C188725",,"Objective Level Value Set Terminology","Study Primary Objective","Study Primary Objective; Trial Primary Objective","A principle objective of the study.","Trial Primary Objective","DDF CT 2024-03-29"
"C85827","C188725",,"Objective Level Value Set Terminology","Study Secondary Objective","Study Secondary Objective; Trial Secondary Objective","An auxiliary objective of the study.","Trial Secondary Objective","DDF CT 2024-03-29"
"C188724",,,"Organization Type Value Set Terminology","Organization Type Value Set Terminology","Organization Type Value Set Terminology","The terminology relevant to the organization type.","CDISC DDF Organization Type Value Set Terminology","DDF CT 2024-03-29"
"C93453","C188724",,"Organization Type Value Set Terminology","Clinical Study Registry",,"An organization (typically a government agency) that administers the registration of studies. (BRIDG)","Study Registry","DDF CT 2024-03-29"
"C70793","C188724",,"Organization Type Value Set Terminology","Clinical Study Sponsor","Clinical Study Sponsor; Sponsor; Study Sponsor","An individual, company, institution, or organization that takes responsibility for the initiation, management, and/or financing of a clinical study. [After ICH E6, WHO, 21 CFR 50.3 (e), and after IDMP]","Clinical Study Sponsor","DDF CT 2024-03-29"
"C188863","C188724",,"Organization Type Value Set Terminology","Regulatory Agency","Regulator; Regulatory Body","An organization (typically a government agency) that is responsible for implementing and enforcing laws, licensing and regulating products and services, promoting the use of standards, and ensuring safety and consumer protections.","Regulatory Agency","DDF CT 2024-03-29"
"C188723",,,"Protocol Status Value Set Terminology","Protocol Status Value Set Terminology","Protocol Status Value Set Terminology","The terminology relevant to the protocol status.","CDISC DDF Protocol Status Value Set Terminology","DDF CT 2024-03-29"
"C25425","C188723",,"Protocol Status Value Set Terminology","Approved",,"Acceptance as satisfactory by an authoritative body; established by authority; given authoritative approval.","Approval","DDF CT 2024-03-29"
"C85255","C188723",,"Protocol Status Value Set Terminology","Draft",,"A preliminary version of a written work, design, or picture.","Draft","DDF CT 2024-03-29"
"C25508","C188723",,"Protocol Status Value Set Terminology","Final",,"Conclusive in a process or progression.","Final","DDF CT 2024-03-29"
"C63553","C188723",,"Protocol Status Value Set Terminology","Obsolete",,"No longer in use or valid; old.","Obsolete","DDF CT 2024-03-29"
"C188862","C188723",,"Protocol Status Value Set Terminology","Pending Review","Draft Pending Review","A preliminary version of a written work, design, or picture that is awaiting review.","Pending Review","DDF CT 2024-03-29"
"C66732",,"No","Sex of Participants Response","SEXPOP","Sex of Participants Response","A terminology codelist relevant to the specific sex, either male, female, or mixed of the subject group being studied.","CDISC SDTM Sex of Study Group Terminology","DDF CT 2024-03-29"
"C49636","C66732",,"Sex of Participants Response","BOTH",,"One and the other; relating to or being two in conjunction. (NCI)","Both","DDF CT 2024-03-29"
"C16576","C66732",,"Sex of Participants Response","F","Female","A person who belongs to the sex that normally produces ova. The term is used to indicate biological sex distinctions, or cultural gender role distinctions, or both. (NCI)","Female","DDF CT 2024-03-29"
"C20197","C66732",,"Sex of Participants Response","M","Male","A person who belongs to the sex that normally produces sperm. The term is used to indicate biological sex distinctions, cultural gender role distinctions, or both. (NCI)","Male","DDF CT 2024-03-29"
"C188727",,,"Study Arm Data Origin Type Value Set Terminology","Study Arm Data Origin Type Value Set Terminology","Study Arm Data Origin Type Value Set Terminology","The terminology relevant to the study arm data origin type.","CDISC DDF Study Arm Data Origin Type Value Set Terminology","DDF CT 2024-03-29"
"C188866","C188727",,"Study Arm Data Origin Type Value Set Terminology","Data Generated Within Study",,"Data that are generated from the current study.","Data Generated Within Study","DDF CT 2024-03-29"
"C188864","C188727",,"Study Arm Data Origin Type Value Set Terminology","Historical Data",,"Data from studies that have occurred in the past.","Historical Data","DDF CT 2024-03-29"
"C165830","C188727",,"Study Arm Data Origin Type Value Set Terminology","Real World Data",,"Data relating to patient health status and/or the delivery of health care routinely collected from sources other than traditional clinical trials. NOTE: Examples of sources include data derived from electronic health records (EHRs); medical claims and billing data; data from product and disease registries; patient-generated data, including from in-home-use settings; and data gathered from other sources that can inform on health status, such as mobile devices. [After 21 U.S.C. 355g(b)).5 and Framework for FDA's Real-World Evidence Program December 2018] See also Real-World Evidence (RWE)","Real-world Data","DDF CT 2024-03-29"
"C176263","C188727",,"Study Arm Data Origin Type Value Set Terminology","Synthetic Data",,"Data that are artificially created rather than being generated by actual events. NOTE: Data are often created with the help of algorithms and used for a wide range of activities, including as test data for new products and tools, for model validation, and in AI optimization. [After The Ultimate Guide to Synthetic Data in 2020, August 29, 2020]. See also artificial intelligence.","Synthetic Data","DDF CT 2024-03-29"
"C188865","C188727",,"Study Arm Data Origin Type Value Set Terminology","Virtual Data",,"Data that are generated from virtual encounters between investigators and subjects.","Virtual Data","DDF CT 2024-03-29"
"C174222",,,"Study Arm Type Value Set Terminology","Study Arm Type Value Set Terminology","Study Arm Type Value Set Terminology","The terminology relevant to the identification of the kind of arm.","CDISC Protocol Study Arm Type Value Set Terminology","DDF CT 2024-03-29"
"C174267","C174222",,"Study Arm Type Value Set Terminology","Active Comparator Arm",,"An arm describing the active comparator.","Active Comparator Arm","DDF CT 2024-03-29"
"C174226","C174222",,"Study Arm Type Value Set Terminology","Control Arm",,"An arm describing the intervention or treatment plan for a group of participants in the study receiving a control. The control may comprise a non-investigational product (active control) or regimen, placebo, or no treatment.","Control Arm","DDF CT 2024-03-29"
"C174266","C174222",,"Study Arm Type Value Set Terminology","Experimental Arm","Investigational Arm","An arm describing the intervention or treatment plan for a group of participants in the study receiving test product(s).","Investigational Arm","DDF CT 2024-03-29"
"C174270","C174222",,"Study Arm Type Value Set Terminology","No Intervention Arm",,"A study arm without an intervention or treatment.","No Intervention Arm","DDF CT 2024-03-29"
"C174268","C174222",,"Study Arm Type Value Set Terminology","Placebo Comparator Arm","Placebo Control Arm","An arm describing the placebo comparator.","Placebo Control Arm","DDF CT 2024-03-29"
"C174269","C174222",,"Study Arm Type Value Set Terminology","Sham Comparator Arm","Sham Intervention Arm","An arm describing the sham comparator.","Sham Comparator Arm","DDF CT 2024-03-29"
"C15538","C174222",,"Study Arm Type Value Set Terminology","Treatment Arm",,"An arm describing the intervention or treatment plan for a group of participants in the study. Treatment may consist of either experimental or control products under investigation.","Protocol Treatment Arm","DDF CT 2024-03-29"
"C99077",,"No","Study Type Response","STYPE","Study Type Response","A terminology codelist relevant to the role the study plays in determining the interventions a subject receives.","CDISC SDTM Study Type Terminology","DDF CT 2024-03-29"
"C98722","C99077",,"Study Type Response","EXPANDED ACCESS","Compassionate Use","Studies that provide a means for obtaining an experimental drug or device for patients who are not adequately treated by existing therapy, who do not meet the eligibility criteria for enrollment, or who are otherwise unable to participate in another clinical study.","Expanded Access Study","DDF CT 2024-03-29"
"C98388","C99077",,"Study Type Response","INTERVENTIONAL",,"Studies in which individuals are assigned by an investigator based on a protocol to receive specific interventions. Subjects may receive diagnostic, therapeutic or other types of interventions. The assignment of the intervention may or may not be random. The individuals are then followed and biomedical and/or health outcomes are assessed.","Interventional Study","DDF CT 2024-03-29"
"C16084","C99077",,"Study Type Response","OBSERVATIONAL",,"Studies in which biomedical and/or health outcomes are assessed in pre-defined groups of individuals. Subjects in the study may receive diagnostic, therapeutic, or other interventions, but the investigator does not assign specific interventions to the subjects of the study.","Observational Study","DDF CT 2024-03-29"
"C129000","C99077",,"Study Type Response","PATIENT REGISTRY",,"Observational studies which include an organized system that uses observational methods to collect uniform data (clinical and other) prospectively for a population defined by a particular disorder/disease, condition (including susceptibility to a disorder), or exposure (including products, health care services, and/or procedures) and that serves a predetermined scientific, clinical, or policy purpose. Patient registries may be single purpose or on-going data collection programs that address one or more questions. (AHRQ)","Patient Registry Study","DDF CT 2024-03-29"
"C201265",,,"Timing Relative To From Value Set Terminology","Timing Relative To From Value Set Terminology","Timing Relative To From Value Set Terminology","The terminology relevant to the timing relative to from value set.","CDISC DDF Timing Relative To From Value Set Terminology","DDF CT 2024-03-29"
"C201352","C201265",,"Timing Relative To From Value Set Terminology","End to End",,"A timing relationship defined as the end of one event to the end of another event.","End to End","DDF CT 2024-03-29"
"C201353","C201265",,"Timing Relative To From Value Set Terminology","End to Start",,"A timing relationship defined as the end of one event to the start of another event.","End to Start","DDF CT 2024-03-29"
"C201354","C201265",,"Timing Relative To From Value Set Terminology","Start to End",,"A timing relationship defined as the start of one event to the end of another event.","Start to End","DDF CT 2024-03-29"
"C201355","C201265",,"Timing Relative To From Value Set Terminology","Start to Start",,"A timing relationship defined as the start of one event to the start of another event.","Start to Start","DDF CT 2024-03-29"
"C201264",,,"Timing Type Value Set Terminology","Timing Type Value Set Terminology","Timing Type Value Set Terminology","The terminology relevant to the timing type value set.","CDISC DDF Timing Type Value Set Terminology","DDF CT 2024-03-29"
"C201356","C201264",,"Timing Type Value Set Terminology","After",,"A type of time point relationship that follows a point or period of time within a timeline.","After Timing Type","DDF CT 2024-03-29"
"C201357","C201264",,"Timing Type Value Set Terminology","Before",,"A type of time point relationship that comes before a point or period of time within a timeline.","Before Timing Type","DDF CT 2024-03-29"
"C201358","C201264",,"Timing Type Value Set Terminology","Fixed Reference",,"A type of time point relationship that is fixed with respect to a timeline.","Fixed Reference Timing Type","DDF CT 2024-03-29"
"C66735",,"Yes","Trial Blinding Schema Response","TBLIND","Trial Blinding Schema Response","A terminology codelist relevant to the type of blinding for the trial.","CDISC SDTM Trial Blinding Schema Terminology","DDF CT 2024-03-29"
"C15228","C66735",,"Trial Blinding Schema Response","DOUBLE BLIND","Double Masked; Double-Masked","A study in which neither the subject nor the study personnel interacting with the subject or data during the study knows what intervention a subject is receiving.","Double Blind Study","DDF CT 2024-03-29"
"C187674","C66735",,"Trial Blinding Schema Response","OBSERVER BLIND",,"A study in which the study personnel who measure, record, or assess the subject do not know which intervention the subject is receiving or, in the context of observational studies, do not know the external factors to which a subject has been exposed.","Observer Blind Study","DDF CT 2024-03-29"
"C156592","C66735",,"Trial Blinding Schema Response","OPEN LABEL TO TREATMENT AND DOUBLE BLIND TO IMP DOSE",,"A study in which the therapeutic treatment is open label but the dosing information of the investigational medicinal product (IMP) is double-blinded.","Open Label for Treatment And Double Blind to Dose","DDF CT 2024-03-29"
"C49659","C66735",,"Trial Blinding Schema Response","OPEN LABEL",,"A study in which subjects and study personnel know which intervention each subject is receiving.","Open Label Study","DDF CT 2024-03-29"
"C28233","C66735",,"Trial Blinding Schema Response","SINGLE BLIND","Single Masked; Single-Masked","A study in which one party, either the subject or study personnel, does not know which intervention is administered to the subject.","Single Blind Study","DDF CT 2024-03-29"
"C66736",,"Yes","Trial Intent Type Response","TINDTP","Trial Intent Type Response","A terminology codelist relevant to the responses for the planned purpose of the therapy, device, or agent under study in the clinical trial.","CDISC SDTM Trial Indication Type Terminology","DDF CT 2024-03-29"
"C15714","C66736",,"Trial Intent Type Response","BASIC SCIENCE","Basic Research","A type of study designed to examine the basic mechanism of action (e.g., physiology, biomechanics) of an intervention. (ClinicalTrials.gov)","Basic Research","DDF CT 2024-03-29"
"C49654","C66736",,"Trial Intent Type Response","CURE",,"A type of study designed to evaluate intervention(s) aimed to cure a disease or condition.","Cure Study","DDF CT 2024-03-29"
"C139174","C66736",,"Trial Intent Type Response","DEVICE FEASIBILITY",,"An intervention of a device product is being evaluated to determine the feasibility of the product or to test a prototype device and not health outcomes. Such studies are conducted to confirm the design and operating specifications of a device before beginning a full clinical trial. (ClinicalTrials.gov)","Device Feasibility Study","DDF CT 2024-03-29"
"C49653","C66736",,"Trial Intent Type Response","DIAGNOSIS",,"A type of study designed to evaluate intervention(s) aimed at identifying a disease or condition.","Diagnosis Study","DDF CT 2024-03-29"
"C170629","C66736",,"Trial Intent Type Response","DISEASE MODIFYING",,"A type of study designed to evaluate the effects of treatment(s) intended to cause a change in disease, syndrome, or condition beyond the point of treatment administration.","Disease Modifying Treatment Study","DDF CT 2024-03-29"
"C15245","C66736",,"Trial Intent Type Response","HEALTH SERVICES RESEARCH",,"A type of study designed to evaluate the delivery, processes, management, organization or financing of health care. (ClinicalTrials.gov)","Health Services Research","DDF CT 2024-03-29"
"C49655","C66736",,"Trial Intent Type Response","MITIGATION",,"A type of study designed to identify actions necessary to eliminate or reduce the risk to human life or well-being as a result of a particular medication or treatment regimen. (NCI)","Adverse Effect Mitigation Study","DDF CT 2024-03-29"
"C49657","C66736",,"Trial Intent Type Response","PREVENTION","Prophylaxis Study","A type of study designed to identify actions necessary to permanently eliminate or reduce the long-term risk to human life as a result of a particular medication or treatment regimen.","Prevention Study","DDF CT 2024-03-29"
"C71485","C66736",,"Trial Intent Type Response","SCREENING",,"A type of study designed to assess or examine methods of identifying a condition (or risk factors for a condition) in people who are not yet known to have the condition (or risk factor). (Clinicaltrials.gov)","Screening Study","DDF CT 2024-03-29"
"C71486","C66736",,"Trial Intent Type Response","SUPPORTIVE CARE",,"A type of study designed to evaluate one or more interventions where the primary intent is to maximize comfort, minimize side effects or mitigate against a decline in the subject's health or function. In general, supportive care interventions are not intended to cure a disease. (ClinicalTrials.gov)","Supportive Care Study","DDF CT 2024-03-29"
"C49656","C66736",,"Trial Intent Type Response","TREATMENT","Therapy Trial","A type of study designed to evaluate intervention(s) for treatment of disease, syndrome or condition.","Treatment Study","DDF CT 2024-03-29"
"C66737",,"Yes","Trial Phase Response","TPHASE","Trial Phase Response","A terminology codelist relevant to the phase, or stage, of the clinical trial.","CDISC SDTM Trial Phase Terminology","DDF CT 2024-03-29"
"C48660","C66737",,"Trial Phase Response","NOT APPLICABLE","NA; Not Applicable","Determination of a value is not relevant in the current context. (NCI)","Not Applicable","DDF CT 2024-03-29"
"C54721","C66737",,"Trial Phase Response","PHASE 0 TRIAL","0; Pre-clinical Trial; Trial Phase 0","First-in-human trials, in a small number of subjects, that are conducted before Phase 1 trials and are intended to assess new candidate therapeutic and imaging agents. The study agent is administered at a low dose for a limited time, and there is no therapeutic or diagnostic intent. NOTE: FDA Guidance for Industry, Investigators, and Reviewers: Exploratory IND Studies, January 2006 classifies such studies as Phase 1. NOTE: A Phase 0 study might not include any drug delivery but may be an exploration of human material from a study (e.g., tissue samples or biomarker determinations). [Improving the Quality of Cancer Clinical Trials: Workshop summary-Proceedings of the National Cancer Policy Forum Workshop, improving the Quality of Cancer Clinical Trials (Washington, DC, Oct 2007)] (CDISC glossary)","Phase 0 Trial","DDF CT 2024-03-29"
"C15600","C66737",,"Trial Phase Response","PHASE I TRIAL","1; Trial Phase 1","The initial introduction of an investigational new drug into humans. Phase 1 studies are typically closely monitored and may be conducted in patients or normal volunteer subjects. NOTE: These studies are designed to determine the metabolism and pharmacologic actions of the drug in humans, the side effects associated with increasing doses, and, if possible, to gain early evidence on effectiveness. During Phase 1, sufficient information about the drug's pharmacokinetics and pharmacological effects should be obtained to permit the design of well-controlled, scientifically valid, Phase 2 studies. The total number of subjects and patients included in Phase I studies varies with the drug, but is generally in the range of 20 to 80. Phase 1 studies also include studies of drug metabolism, structure-activity relationships, and mechanism of action in humans, as well as studies in which investigational drugs are used as research tools to explore biological phenomena or disease processes. [After FDA CDER Handbook, ICH E8] (CDISC glossary)","Phase I Trial","DDF CT 2024-03-29"
"C15693","C66737",,"Trial Phase Response","PHASE I/II TRIAL","1-2; Trial Phase 1-2","A class of clinical study that combines elements characteristic of traditional Phase I and Phase II trials. See also Phase I, Phase II.","Phase I/II Trial","DDF CT 2024-03-29"
"C198366","C66737",,"Trial Phase Response","PHASE I/II/III TRIAL","1/2/3; Trial Phase 1/2/3","A study that begins as a Phase I study and transitions into Phases II and III based upon successful completion of each previous portion.","Phase I/II/III Trial","DDF CT 2024-03-29"
"C198367","C66737",,"Trial Phase Response","PHASE I/III TRIAL","1/3; Trial Phase 1/3","A study that begins as a Phase I study and transitions into a Phase III study upon successful completion of the Phase I portion.","Phase I/III Trial","DDF CT 2024-03-29"
"C199990","C66737",,"Trial Phase Response","PHASE IA TRIAL","1A; Trial Phase 1A","A type of phase 1 trial with a single ascending dose (dose escalation) in a smaller group of patients (in comparison to a Phase 1B).","Phase Ia Trial","DDF CT 2024-03-29"
"C199989","C66737",,"Trial Phase Response","PHASE IB TRIAL","1B; Trial Phase 1B","A type of phase 1 trial with multiple ascending doses (dose expansion) in a larger group of patients (in comparison to a Phase 1A).","Phase Ib Trial","DDF CT 2024-03-29"
"C15601","C66737",,"Trial Phase Response","PHASE II TRIAL","2; Trial Phase 2","Phase that includes the controlled clinical trials conducted to evaluate the safety and efficacy of the drug in a limited number of patients with the disease or condition under study. Objectives can be dose-ranging (dose-response, frequency of dosing), type of patients, or numerous other characteristics of safety and efficacy. [After 21 CRF Part 312.21 Phases of an investigation] See also phase, phase 2a, phase 2b. (CDISC Glossary)","Phase II Trial","DDF CT 2024-03-29"
"C15694","C66737",,"Trial Phase Response","PHASE II/III TRIAL","2-3; Trial Phase 2-3","A class of clinical study that combines elements characteristic of traditional Phase II and Phase III trials.","Phase II/III Trial","DDF CT 2024-03-29"
"C49686","C66737",,"Trial Phase Response","PHASE IIA TRIAL","2A; Trial Phase 2A","Early Phase 2 trials that focus on a proof-of-concept assessment of efficacy and safety in a small number of patients. [After FDA Guidance for industry end of Phase 2a meetings, September 2009] (CDISC Glossary)","Phase IIa Trial","DDF CT 2024-03-29"
"C49688","C66737",,"Trial Phase Response","PHASE IIB TRIAL","2B; Trial Phase 2B","Later Phase 2 trials, in transition to Phase 3, where the study populations more closely reflect the population, dosage, and condition for intended use. [Clarification of FDA Guidance for industry end of Phase 2a meetings, September 2009; Discussion in Peter B. Gilbert. SOME DESIGN ISSUES IN PHASE 2B VERSUS PHASE 3 PREVENTION TRIALS FOR TESTING EFFICACY OF PRODUCTS OR CONCEPTS. Stat Med. 2010 May 10; 29(10): 1061-1071.]","Phase IIb Trial","DDF CT 2024-03-29"
"C15602","C66737",,"Trial Phase Response","PHASE III TRIAL","3; Trial Phase 3","Phase that includes the controlled clinical trials intended to confirm safety and effectiveness, evaluate the overall benefit-risk relationship, and to provide substantial evidence for regulatory approval and labeling. NOTE: Phase 3 studies usually include from several hundred to several thousand subjects. [After ICH E8; Demonstrating Substantial Evidence of Effectiveness for Human Drug and Biological Products Draft Guidance for Industry. December 2019] See also phase, phase 3b. (CDISC Glossary)","Phase III Trial","DDF CT 2024-03-29"
"C49687","C66737",,"Trial Phase Response","PHASE IIIA TRIAL","3A; Trial Phase 3A","A classification typically assigned retrospectively to a Phase III trial upon determination by regulatory authorities of a need for a Phase III B trial. (NCI)","Phase IIIa Trial","DDF CT 2024-03-29"
"C49689","C66737",,"Trial Phase Response","PHASE IIIB TRIAL","3B; Trial Phase 3B","Later Phase 3 trial done near the time of approval to elicit additional findings. NOTE: Dossier review may continue while associated Phase 3b trials are conducted. These trials may be required as a condition of regulatory authority approval. Phase 3a is in common usage but not reflected in regulatory guidance. (CDISC Glossary)","Phase IIIb Trial","DDF CT 2024-03-29"
"C15603","C66737",,"Trial Phase Response","PHASE IV TRIAL","4; Trial Phase 4","Post-approval studies to delineate additional information about the drug's risks, benefits, and optimal use that may be requested by regulatory authorities in conjunction with marketing approval. NOTE: Phase 4 studies could include, but would not be limited to, studying different doses or schedules of administration than were used in Phase 2 studies, use of the drug in other patient populations or other stages of the disease, or use of the drug over a longer period of time. [after FDA CDER handbook, ICH E8] See also phase. (CDISC Glossary)","Phase IV Trial","DDF CT 2024-03-29"
"C47865","C66737",,"Trial Phase Response","PHASE V TRIAL","5; Trial Phase 5","Postmarketing surveillance is sometimes referred to as Phase V.","Phase V Trial","DDF CT 2024-03-29"
"C66739",,"Yes","Trial Type Response","TTYPE","Trial Type Response","A terminology codelist relevant to the type of primary outcome or endpoint that the protocol is designed to evaluate.","CDISC SDTM Trial Type Terminology","DDF CT 2024-03-29"
"C158283","C66739",,"Trial Type Response","ADHESION PERFORMANCE",,"A type of study designed to evaluate the strength of the bond between an adhesive and the application surface.","Adhesion Performance Study","DDF CT 2024-03-29"
"C158284","C66739",,"Trial Type Response","ALCOHOL EFFECT",,"A type of study designed to evaluate the effects of alcohol on investigational product safety and/or efficacy.","Alcohol Effect Study","DDF CT 2024-03-29"
"C49664","C66739",,"Trial Type Response","BIO-AVAILABILITY",,"A study of the degree to which or rate at which a drug or other substance is absorbed or becomes available at the site of physiological activity after administration. (NCI)","Bioavailability Study","DDF CT 2024-03-29"
"C49665","C66739",,"Trial Type Response","BIO-EQUIVALENCE",,"A study most often used to compare the efficacy of different formulations to treat a given disease. It is the testing of an old versus a new formulation in healthy volunteers or subjects with the disease under study and usually in one dose. (NCI)","Therapeutic Equivalency Study","DDF CT 2024-03-29"
"C158288","C66739",,"Trial Type Response","BIOSIMILARITY",,"A type of study designed to evaluate whether a biologic test article is highly similar in function and effect to an existing biologic that has already been clinically tested and approved for use.","Biosimilarity Study","DDF CT 2024-03-29"
"C158285","C66739",,"Trial Type Response","DEVICE-DRUG INTERACTION",,"A type of study designed to evaluate the interaction between a device and a drug, where the use of one may affect the disposition, function, efficacy, or safety of the other.","Device-Drug Interaction Study","DDF CT 2024-03-29"
"C49653","C66739",,"Trial Type Response","DIAGNOSIS",,"A type of study designed to evaluate intervention(s) aimed at identifying a disease or condition.","Diagnosis Study","DDF CT 2024-03-29"
"C158289","C66739",,"Trial Type Response","DOSE FINDING",,"An early phase clinical study with the objective of determining the optimal dose of an investigational product.","Dose Finding Study","DDF CT 2024-03-29"
"C158290","C66739",,"Trial Type Response","DOSE PROPORTIONALITY",,"A type of study designed to evaluate the relationship between dose and resulting exposure.","Dose Proportionality Study","DDF CT 2024-03-29"
"C127803","C66739",,"Trial Type Response","DOSE RESPONSE",,"A study of the effect of dose changes on the efficacy of a drug in order to determine the dose-response relationship and optimal dose of a therapy.","Dose Response Study","DDF CT 2024-03-29"
"C158286","C66739",,"Trial Type Response","DRUG-DRUG INTERACTION",,"A type of study designed to evaluate the interaction between drugs, where the use of one may affect the disposition, efficacy, or safety of the other.","Drug-Drug Interaction Study","DDF CT 2024-03-29"
"C178057","C66739",,"Trial Type Response","ECG","Electrocardiographic Study","A study that evaluates the effect of a treatment on cardiac electrical activity, as assessed by electrocardiography.","Electrocardiographic Study","DDF CT 2024-03-29"
"C49666","C66739",,"Trial Type Response","EFFICACY",,"A study of the relative therapeutic efficacy of treatment of a disease. Usually this is a Phase II or III study. (NCI)","Efficacy Study","DDF CT 2024-03-29"
"C98729","C66739",,"Trial Type Response","FOOD EFFECT",,"Studies that are conducted to assess the effect of food on the rate and extent of absorption of a drug, either compared to a fasted state or to a reference drug.","Food Effect Study","DDF CT 2024-03-29"
"C120842","C66739",,"Trial Type Response","IMMUNOGENICITY",,"A study that assesses an agent's ability to provoke an immune response.","Immunogenicity Study","DDF CT 2024-03-29"
"C201484","C66739",,"Trial Type Response","MASS BALANCE",,"A type of study designed to evaluate the overall pathways of metabolism and excretion of a drug, and to identify and/or quantify metabolites in plasma and excreta.","Mass Balance Study","DDF CT 2024-03-29"
"C49662","C66739",,"Trial Type Response","PHARMACODYNAMIC",,"A study of the biochemical and physiological effect of a drug and the mechanism of drug action and the relationship between drug concentration and effect. (NCI)","Pharmacodynamic Study","DDF CT 2024-03-29"
"C39493","C66739",,"Trial Type Response","PHARMACOECONOMIC",,"A study that assesses the value associated with a given drug in therapeutic and economic terms. This type of study is multidisciplinary in nature and takes into consideration the social and economic costs (resource utilization costs including direct, indirect, and intangible costs) of drug therapy in addition to its direct therapeutic benefits. Analyses relate the difference in therapeutic benefits to the difference in costs between treatment alternatives. (NCI)","Pharmacoeconomic Study","DDF CT 2024-03-29"
"C129001","C66739",,"Trial Type Response","PHARMACOGENETIC",,"A study that assesses variation in DNA sequence, usually within a single gene, and its effect on drug response.","Pharmacogenetic Study","DDF CT 2024-03-29"
"C49661","C66739",,"Trial Type Response","PHARMACOGENOMIC",,"A study that identifies or assesses variations within the entire genome, including DNA, RNA, or transcriptional elements, and its effects on drug response.","Pharmacogenomic Study","DDF CT 2024-03-29"
"C49663","C66739",,"Trial Type Response","PHARMACOKINETIC",,"A study of the process by which a drug is absorbed, distributed, metabolized, and eliminated by the body. (NCI)","Pharmacokinetic Study","DDF CT 2024-03-29"
"C161477","C66739",,"Trial Type Response","POSITION EFFECT",,"A type of study designed to evaluate the effect of body position during and/or after administration of the investigational product.","Position Effect Trial","DDF CT 2024-03-29"
"C49657","C66739",,"Trial Type Response","PREVENTION","Prophylaxis Study","A type of study designed to identify actions necessary to permanently eliminate or reduce the long-term risk to human life as a result of a particular medication or treatment regimen.","Prevention Study","DDF CT 2024-03-29"
"C174366","C66739",,"Trial Type Response","REACTOGENICITY",,"A type of study designed to evaluate the expected, acute types of immunological responses, sometimes considered excessive, following agent administration.","Reactogenicity Study","DDF CT 2024-03-29"
"C49667","C66739",,"Trial Type Response","SAFETY",,"A study that assesses the medical risks to a subject. Safety is usually assessed by examining a wide range of clinical parameters, including adverse events, vital signs, physical exam, laboratory tests.","Safety Study","DDF CT 2024-03-29"
"C161478","C66739",,"Trial Type Response","SWALLOWING FUNCTION",,"A type of study designed to evaluate the effect of the investigational product on the physiologic act of swallowing.","Swallowing Function Trial","DDF CT 2024-03-29"
"C158287","C66739",,"Trial Type Response","THOROUGH QT","TQT Study","A type of study designed to evaluate the ability of an investigational product and/or approved drug to delay cardiac ventricular repolarization as detected by QT prolongation and other ECG parameters.","Thorough QT Study","DDF CT 2024-03-29"
"C98791","C66739",,"Trial Type Response","TOLERABILITY",,"A type of safety study that assesses the degree to which overt adverse effects can be tolerated by the subject.","Tolerability Study","DDF CT 2024-03-29"
"C49656","C66739",,"Trial Type Response","TREATMENT","Therapy Trial","A type of study designed to evaluate intervention(s) for treatment of disease, syndrome or condition.","Treatment Study","DDF CT 2024-03-29"
"C161479","C66739",,"Trial Type Response","USABILITY TESTING",,"A type of study designed to evaluate the user experience with a product.","Usability Testing Study","DDF CT 2024-03-29"
"C161480","C66739",,"Trial Type Response","WATER EFFECT",,"A type of study designed to evaluate the effects of water on investigational product safety and/or efficacy.","Water Effect Trial","DDF CT 2024-03-29"
