"Version","Variable Order","Class","Dataset Name","Variable Name","Variable Label","Type","CDISC CT Codelist Code(s)","Codelist Submission Values","Described Value Domain(s)","Value List","Role","CDISC Notes","Core"
"SENDIG v3.1.1","1","Interventions","EX","STUDYID","Study Identifier","Char","","",,"","Identifier","Unique identifier for a study.","Req"
"SENDIG v3.1.1","2","Interventions","EX","DOMAIN","Domain Abbreviation","Char","","",,"EX","Identifier","Two-character abbreviation for the domain.","Req"
"SENDIG v3.1.1","3","Interventions","EX","USUBJID","Unique Subject Identifier","Char","","",,"","Identifier","Identifier used to uniquely identify a subject across all studies for all applications or submissions involving the product. Either USUBJID or POOLID must be populated.","Exp"
"SENDIG v3.1.1","4","Interventions","EX","POOLID","Pool Identifier","Char","","",,"","Identifier","Identifier used for pooling subjects to assign a single finding to multiple subjects. If POOLID is entered, POOLDEF records must exist for each subject and the USUBJID must be null. Either USUBJID or POOLID must be populated.","Perm"
"SENDIG v3.1.1","5","Interventions","EX","FOCID","Focus of Study-Specific Interest","Char","","",,"","Identifier","Identification of a focus of study-specific interest on or within a subject or specimen as defined in the protocol for which a measurement, test, or examination was performed, such as a drug application site, e.g., ""Injection site 1,"" ""Biopsy site 1,"" ""Treated site 1."" the value in this variable should have inherent semantic value.","Perm"
"SENDIG v3.1.1","6","Interventions","EX","EXSEQ","Sequence Number","Num","","",,"","Identifier","The sequence number must be unique for each record within a USUBJID or POOLID, whichever applies for the record.","Req"
"SENDIG v3.1.1","7","Interventions","EX","EXTRT","Name of Actual Treatment","Char","","",,"","Topic","Name of the treatment, as defined by the protocol.","Req"
"SENDIG v3.1.1","8","Interventions","EX","EXDOSE","Dose per Administration","Num","","",,"","Record Qualifier","Amount of treatment administered.","Exp"
"SENDIG v3.1.1","9","Interventions","EX","EXDOSTXT","Dose Description","Char","","",,"","Record Qualifier","If the amount of treatment administered cannot be represented as a number and populated in EXDOSE, this field is used to describe the amount of treatment administered. Example: 200-400.","Perm"
"SENDIG v3.1.1","10","Interventions","EX","EXDOSU","Dose Units","Char","C71620","UNIT",,"","Variable Qualifier","Units for EXDOSE or EXDOSTXT. Examples: ng, mg, or mg/kg.","Exp"
"SENDIG v3.1.1","11","Interventions","EX","EXDOSFRM","Dose Form","Char","C66726","FRM",,"","Variable Qualifier","Dose form for treatment (form administered). Examples: TABLET, LOTION.","Exp"
"SENDIG v3.1.1","12","Interventions","EX","EXDOSFRQ","Dosing Frequency Per Interval","Char","C71113","FREQ",,"","Variable Qualifier","Usually expressed as the number of repeated administrations of EXDOSE within a specific time period. Examples: QD (once daily), BID (2x daily).","Req"
"SENDIG v3.1.1","13","Interventions","EX","EXROUTE","Route of Administration","Char","C66729","ROUTE",,"","Variable Qualifier","Route of administration for EXTRT. Examples: ORAL GAVAGE, DERMAL, INTRAVENOUS.","Req"
"SENDIG v3.1.1","14","Interventions","EX","EXLOT","Lot Number","Char","","",,"","Record Qualifier","Lot Number(s) or Batch Number(s) of the EXTRT test article. If mixed lots of the test article are administered during the same constant dosing interval, this should be represented as ""Lot A;Lot B."" Mixed lots are produced by the mixing of Lots a and B of the test article into one solution, suspension, or dietary food concentration. If no test article was administered, EXLOT should be null.","Exp"
"SENDIG v3.1.1","15","Interventions","EX","EXLOC","Location of Dose Administration","Char","","",,"","Record Qualifier","Specifies anatomical location (site) of administration. Example: LEFT HINDLIMB for a topical application or an injection site number. Each administration will require its own record.","Perm"
"SENDIG v3.1.1","16","Interventions","EX","EXMETHOD","Method of Administration","Char","","",,"","Record Qualifier","Method of the dose administration. Example: INFUSION.","Perm"
"SENDIG v3.1.1","17","Interventions","EX","EXTRTV","Treatment Vehicle","Char","","",,"","Record Qualifier","Describes vehicle used for treatment. Example: SALINE.","Exp"
"SENDIG v3.1.1","18","Interventions","EX","EXVAMT","Amount Administered","Num","","",,"","Record Qualifier","The amount (volume or weight) of the treatment compound plus vehicle administered in a single dose. This is not to be confused with EXDOSE. EXDOSE refers to the amount of test material administered to the subject.","Perm"
"SENDIG v3.1.1","19","Interventions","EX","EXVAMTU","Amount Administered Units","Char","C71620","UNIT",,"","Variable Qualifier","Units for EXVAMT (per dose administration).","Perm"
"SENDIG v3.1.1","20","Interventions","EX","EXADJ","Reason for Dose Adjustment","Char","","",,"","Record Qualifier","Describes reason or explanation of why a dose is adjusted - used only when an adjustment is represented in EX. May be used for variations from protocol-specified doses or changes from expected doses (e.g., when dose is adjusted due to toxicity).","Perm"
"SENDIG v3.1.1","21","Interventions","EX","EXSTDTC","Start Date/Time of Treatment","Char","","","ISO 8601","","Timing","Date/Time when administration of the treatment indicated by EXTRT and EXDOSE began, in ISO 8601 format.","Exp"
"SENDIG v3.1.1","22","Interventions","EX","EXENDTC","End Date/Time of Treatment","Char","","","ISO 8601","","Timing","Date/Time when administration of the treatment indicated by EXTRT and EXDOSE ended, in ISO 8601 format.","Perm"
"SENDIG v3.1.1","23","Interventions","EX","EXSTDY","Study Day of Start of Treatment","Num","","",,"","Timing","Study day when administration of the treatment began, in integer days. The algorithm for calculations must be relative to the sponsor-defined RFSTDTC variable in the Demographics (DM) domain.","Perm"
"SENDIG v3.1.1","24","Interventions","EX","EXENDY","Study Day of End of Treatment","Num","","",,"","Timing","Study day when administration of the treatment ended, in integer days. The algorithm for calculations must be relative to the sponsor-defined RFSTDTC variable in the Demographics (DM) domain.","Perm"
"SENDIG v3.1.1","25","Interventions","EX","EXDUR","Duration of Treatment","Char","","","ISO 8601","","Timing","Duration and unit of time for a continuous treatment. This may be used to denote the length of an infusion (e.g., PT10M to indicate 10 minutes).","Perm"
"SENDIG v3.1.1","26","Interventions","EX","EXTPT","Planned Time Point Name","Char","","",,"","Timing","Text description of time when a dose should be given. Note: This may be represented as an elapsed time relative to a fixed reference point, such as time of last dose. See EXTPTNUM and EXTPTREF.","Perm"
"SENDIG v3.1.1","27","Interventions","EX","EXTPTNUM","Planned Time Point Number","Num","","",,"","Timing","Numerical version of EXTPT to aid in sorting.","Perm"
"SENDIG v3.1.1","28","Interventions","EX","EXELTM","Planned Elapsed Time from Time Point Ref","Char","","","ISO 8601","","Timing","Planned elapsed time (in ISO 8601 format) relative to the planned fixed reference (EXTPTREF). This variable is useful where there are repetitive measures. Not a clock time or a date time variable. Represented as an ISO 8601 duration. Examples: ""- PT15M"" to represent the period of 15 minutes prior to the reference point indicated by EXTPTREF, or ""PT8H"" to represent the period of 8 hours after the reference point indicated by EXTPTREF.","Perm"
"SENDIG v3.1.1","29","Interventions","EX","EXTPTREF","Time Point Reference","Char","","",,"","Timing","Name of the fixed reference point referred to by EXELTM, if used for EXTPTNUM, and EXTPT. It is recommended that EXTPTREF be as descriptive as possible so the reference time point can be inferred without looking at other variables. Examples: Previous dose, previous feed.","Perm"
"SENDIG v3.1.1","30","Interventions","EX","EXRFTDTC","Date/Time of Reference Time Point","Char","","","ISO 8601","","Timing","Date/Time of the reference time point, EXTPTREF.","Perm"
"SENDIG v3.1.1","1","Events","DS","STUDYID","Study Identifier","Char","","",,"","Identifier","Unique identifier for a study.","Req"
"SENDIG v3.1.1","2","Events","DS","DOMAIN","Domain Abbreviation","Char","","",,"DS","Identifier","Two-character abbreviation for the domain.","Req"
"SENDIG v3.1.1","3","Events","DS","USUBJID","Unique Subject Identifier","Char","","",,"","Identifier","Identifier used to uniquely identify a subject across all studies for all applications or submissions involving the product.","Req"
"SENDIG v3.1.1","4","Events","DS","DSSEQ","Sequence Number","Num","","",,"","Identifier","Sequence number given to ensure uniqueness of subject records within a domain. May be any valid number.","Req"
"SENDIG v3.1.1","5","Events","DS","DSTERM","Reported Term for the Disposition Event","Char","","",,"","Topic","DSTERM is the original term recorded for subject disposition. DSTERM is not under controlled terminology, but should be mapped to DSDECOD.","Req"
"SENDIG v3.1.1","6","Events","DS","DSDECOD","Standardized Disposition Term","Char","C89968","DSDECOD",,"","Synonym Qualifier","Contains the result in a standard format.","Req"
"SENDIG v3.1.1","7","Events","DS","DSUSCHFL","Unscheduled Flag","Char","C66742","NY",,"","Record Qualifier","Indicates whether the subject's disposition was unscheduled. If the subject's disposition was based upon a schedule defined in the protocol, this flag should be null. Expected values are Y or null.","Exp"
"SENDIG v3.1.1","8","Events","DS","VISITDY","Planned Study Day of Disposition","Num","","",,"","Timing","Planned study day of collection. Should be an integer. VISITDY should be populated only when DSTERM represents a scheduled activity.","Perm"
"SENDIG v3.1.1","9","Events","DS","DSSTDTC","Date/Time of Disposition","Char","","","ISO 8601","","Timing","Date/Time of the disposition event, in ISO 8601 format.","Req"
"SENDIG v3.1.1","10","Events","DS","DSSTDY","Study Day of Disposition","Num","","",,"","Timing","Study day of the disposition event, in integer days. The algorithm for calculations must be relative to the sponsor-defined RFSTDTC variable in the Demographics (DM) domain.","Perm"
"SENDIG v3.1.1","11","Events","DS","DSNOMDY","Nominal Study Day for Tabulations","Num","","",,"","Timing","Nominal study day used for grouping records for observations that may occur on different days into a single reported study day. Should be an integer.","Exp"
"SENDIG v3.1.1","12","Events","DS","DSNOMLBL","Label for Nominal Study Day","Char","","",,"","Timing","A label for a given value of DSNOMDY as presented in the study report. Examples: Week 4, Day 28, Terminal Sac.","Perm"
"SENDIG v3.1.1","1","Findings","BW","STUDYID","Study Identifier","Char","","",,"","Identifier","Unique identifier for a study.","Req"
"SENDIG v3.1.1","2","Findings","BW","DOMAIN","Domain Abbreviation","Char","","",,"BW","Identifier","Two-character abbreviation for the domain.","Req"
"SENDIG v3.1.1","3","Findings","BW","USUBJID","Unique Subject Identifier","Char","","",,"","Identifier","Identifier used to uniquely identify a subject across all studies for all applications or submissions involving the product.","Req"
"SENDIG v3.1.1","4","Findings","BW","BWSEQ","Sequence Number","Num","","",,"","Identifier","Sequence number given to ensure uniqueness of subject records within a domain. May be any valid number.","Req"
"SENDIG v3.1.1","5","Findings","BW","BWTESTCD","Test Short Name","Char","C89962","BWTESTCD",,"","Topic","Short name of the measurement, test, or examination described in BWTEST. It can be used as a column name when converting a dataset from a vertical to a horizontal format. The value in BWTESTCD cannot be longer than 8 characters, nor can it start with a number (e.g., ""1TEST"" is not valid). BWTESTCD cannot contain characters other than letters, numbers, or underscores.","Req"
"SENDIG v3.1.1","6","Findings","BW","BWTEST","Test Name","Char","C89961","BWTEST",,"","Synonym Qualifier","Long name for BWTESTCD. The value in BWTEST cannot be longer than 40 characters.","Req"
"SENDIG v3.1.1","7","Findings","BW","BWORRES","Result or Findings as Collected","Char","","",,"","Result Qualifier","Result of the measurement or finding as originally received or collected.","Exp"
"SENDIG v3.1.1","8","Findings","BW","BWORRESU","Unit of the Original Result","Char","C71620","UNIT",,"","Variable Qualifier","The unit for the original result. The unit of the original result should be mapped to a synonymous unit on the Controlled Terminology list.","Exp"
"SENDIG v3.1.1","9","Findings","BW","BWSTRESC","Standardized Result in Character Format","Char","","",,"","Result Qualifier","Contains the result value for all findings, copied or derived from BWORRES in a standard format or standard units. BWSTRESC should store all results or findings in character format; if results are numeric, they should also be submitted in numeric format in BWSTRESN.","Exp"
"SENDIG v3.1.1","10","Findings","BW","BWSTRESN","Standardized Result in Numeric Format","Num","","",,"","Result Qualifier","Used for numeric results or findings in standard format; contains the numeric form of BWSTRESC. BWSTRESN should store all numeric test results or findings.","Exp"
"SENDIG v3.1.1","11","Findings","BW","BWSTRESU","Unit of the Standardized Result","Char","C71620","UNIT",,"","Variable Qualifier","Standardized unit used for BWSTRESC and BWSTRESN.","Exp"
"SENDIG v3.1.1","12","Findings","BW","BWSTAT","Completion Status","Char","C66789","ND",,"","Record Qualifier","Used to indicate when a test is not done or result is missing. Should be null if a result exists in BWORRES.","Perm"
"SENDIG v3.1.1","13","Findings","BW","BWREASND","Reason Not Done","Char","","",,"","Record Qualifier","Describes why BWSTAT is NOT DONE, such as BROKEN EQUIPMENT or TECHNICIAN OVERSIGHT.","Perm"
"SENDIG v3.1.1","14","Findings","BW","BWBLFL","Baseline Flag","Char","C66742","NY",,"","Record Qualifier","A baseline indicator may be used to calculate differences or changes from baseline. Value should be Y or null. The baseline flag is sponsor defined.","Exp"
"SENDIG v3.1.1","15","Findings","BW","BWFAST","Fasting Status","Char","C66742","NY",,"","Record Qualifier","Indicator used to identify fasting status. The value should by Y or null.","Perm"
"SENDIG v3.1.1","16","Findings","BW","BWEXCLFL","Exclusion Flag","Char","C66742","NY",,"","Record Qualifier","Y if the result should be excluded from all calculations, otherwise null.","Perm"
"SENDIG v3.1.1","17","Findings","BW","BWREASEX","Reason for Exclusion","Char","","",,"","Record Qualifier","The reason the result should be excluded from all calculations. Used only when BWEXCLFL is Y.","Perm"
"SENDIG v3.1.1","18","Findings","BW","BWUSCHFL","Unscheduled Flag","Char","C66742","NY",,"","Record Qualifier","Indicates whether the timing of a performed test or observation was unscheduled. If a test or observation was performed based upon a schedule defined in the protocol, this flag should be null. Expected values are Y or null.","Perm"
"SENDIG v3.1.1","19","Findings","BW","VISITDY","Planned Study Day of Collection","Num","","",,"","Timing","Planned study day of collection. Should be an integer.","Perm"
"SENDIG v3.1.1","20","Findings","BW","BWDTC","Date/Time Animal Weighed","Char","","","ISO 8601","","Timing","Date/Time of body weight collection in ISO 8601 format.","Exp"
"SENDIG v3.1.1","21","Findings","BW","BWDY","Study Day Animal Weighed","Num","","",,"","Timing","Study day of body weight collection, in integer days. The algorithm for calculations must be relative to the sponsor-defined RFSTDTC variable in the Demographics (DM) domain.","Perm"
"SENDIG v3.1.1","22","Findings","BW","BWNOMDY","Nominal Study Day for Tabulations","Num","","",,"","Timing","Nominal study day used for grouping records for observations that may occur on different days into a single reported study day. Should be an integer.","Exp"
"SENDIG v3.1.1","23","Findings","BW","BWNOMLBL","Label for Nominal Study Day","Char","","",,"","Timing","A label for a given value of BWNOMDY as presented in the study report. Examples: ""Week 4,"" ""Day 28,"" ""Terminal Sac"".","Perm"
"SENDIG v3.1.1","1","Findings","BG","STUDYID","Study Identifier","Char","","",,"","Identifier","Unique identifier for a study.","Req"
"SENDIG v3.1.1","2","Findings","BG","DOMAIN","Domain Abbreviation","Char","","",,"BG","Identifier","Two-character abbreviation for the domain.","Req"
"SENDIG v3.1.1","3","Findings","BG","USUBJID","Unique Subject Identifier","Char","","",,"","Identifier","Identifier used to uniquely identify a subject across all studies for all applications or submissions involving the product.","Req"
"SENDIG v3.1.1","4","Findings","BG","BGSEQ","Sequence Number","Num","","",,"","Identifier","Sequence number given to ensure uniqueness of subject records within a domain. May be any valid number.","Req"
"SENDIG v3.1.1","5","Findings","BG","BGTESTCD","Test Short Name","Char","C89960","BGTESTCD",,"","Topic","Short name of the measurement, test, or examination described in BGTEST. It can be used as a column name when converting a dataset from a vertical to a horizontal format. The value in BGTESTCD cannot be longer than 8 characters, nor can it start with a number (e.g., ""1TEST"" is not valid). BGTESTCD cannot contain characters other than letters, numbers, or underscores.","Req"
"SENDIG v3.1.1","6","Findings","BG","BGTEST","Test Name","Char","C89959","BGTEST",,"","Synonym Qualifier","Long name for BGTESTCD. The value in BGTEST cannot be longer than 40 characters.","Req"
"SENDIG v3.1.1","7","Findings","BG","BGORRES","Result or Findings as Collected","Char","","",,"","Result Qualifier","Result of the measurement or finding as originally received or collected.","Exp"
"SENDIG v3.1.1","8","Findings","BG","BGORRESU","Unit of the Original Result","Char","C71620","UNIT",,"","Variable Qualifier","The unit for the original result. The unit of the original result should be mapped to a synonymous unit on the Controlled Terminology (http://www.cdisc.org/terminology) list.","Exp"
"SENDIG v3.1.1","9","Findings","BG","BGSTRESC","Standardized Result in Character Format","Char","","",,"","Result Qualifier","Contains the result value for all findings, copied or derived from BGORRES in a standard format or standard units. BGSTRESC should store all results or findings in character format; if results are numeric, they should also be submitted in numeric format in BGSTRESN.","Exp"
"SENDIG v3.1.1","10","Findings","BG","BGSTRESN","Standardized Result in Numeric Format","Num","","",,"","Result Qualifier","Used for numeric results or findings in standard format; contains the numeric form of BGSTRESC. BGSTRESN should store all numeric test results or findings.","Exp"
"SENDIG v3.1.1","11","Findings","BG","BGSTRESU","Unit of the Standardized Result","Char","C71620","UNIT",,"","Variable Qualifier","Standardized unit used for BGSTRESC and BGSTRESN.","Exp"
"SENDIG v3.1.1","12","Findings","BG","BGSTAT","Completion Status","Char","C66789","ND",,"","Record Qualifier","Used to indicate when a test is not done or result is missing. Should be null if a result exists in BGORRES.","Perm"
"SENDIG v3.1.1","13","Findings","BG","BGREASND","Reason Not Done","Char","","",,"","Record Qualifier","Describes why BGSTAT is NOT DONE, such as MISSING BODY WEIGHT.","Perm"
"SENDIG v3.1.1","14","Findings","BG","BGEXCLFL","Exclusion Flag","Char","C66742","NY",,"","Record Qualifier","Y if the result should be excluded from all calculations, otherwise null.","Perm"
"SENDIG v3.1.1","15","Findings","BG","BGREASEX","Reason for Exclusion","Char","","",,"","Record Qualifier","The reason the result should be excluded from all calculations. Used only when BGEXCLFL is Y.","Perm"
"SENDIG v3.1.1","16","Findings","BG","BGDTC","Date/Time Animal Weighed","Char","","","ISO 8601","","Timing","Date/Time of the start of the weight interval, in ISO 8601 format.","Exp"
"SENDIG v3.1.1","17","Findings","BG","BGENDTC","End Date/Time Animal Weighed","Char","","","ISO 8601","","Timing","Date/Time of the end of the weight interval, in ISO 8601 format.","Exp"
"SENDIG v3.1.1","18","Findings","BG","BGDY","Study Day of Start of Interval","Num","","",,"","Timing","Study day of the start of the weight interval, in integer days. The algorithm for calculations must be relative to the sponsor-defined RFSTDTC variable in the Demographics (DM) domain.","Perm"
"SENDIG v3.1.1","19","Findings","BG","BGENDY","Study Day of End of Weight Interval","Num","","",,"","Timing","Study day of the end of the weight interval, in integer days. The algorithm for calculations must be relative to the sponsor-defined RFSTDTC variable in the Demographics (DM) domain.","Perm"
"SENDIG v3.1.1","1","Findings","CL","STUDYID","Study Identifier","Char","","",,"","Identifier","Unique identifier for a study.","Req"
"SENDIG v3.1.1","2","Findings","CL","DOMAIN","Domain Abbreviation","Char","","",,"CL","Identifier","Two-character abbreviation for the domain.","Req"
"SENDIG v3.1.1","3","Findings","CL","USUBJID","Unique Subject Identifier","Char","","",,"","Identifier","Identifier used to uniquely identify a subject across all studies for all applications or submissions involving the product. Either USUBJID or POOLID must be populated.","Exp"
"SENDIG v3.1.1","4","Findings","CL","POOLID","Pool Identifier","Char","","",,"","Identifier","Identifier used for pooling subjects to assign a single finding to multiple subjects. If POOLID is entered, POOLDEF records must exist for each subject and the USUBJID must be null. Either USUBJID or POOLID must be populated.","Perm"
"SENDIG v3.1.1","5","Findings","CL","FOCID","Focus of Study-Specific Interest","Char","","",,"","Identifier","Identification of a focus of study-specific interest on or within a subject or specimen as defined in the protocol, for which a measurement, test, or examination was performed. An example could be a drug application site, e.g. ""Injection site 1,"" ""Biopsy site 1,"" ""Treated site 1."" the value in this variable should have inherent semantic value.","Perm"
"SENDIG v3.1.1","6","Findings","CL","CLSEQ","Sequence Number","Num","","",,"","Identifier","The sequence number must be unique for each record within a USUBJID or POOLID, whichever applies for the record.","Req"
"SENDIG v3.1.1","7","Findings","CL","CLGRPID","Group Identifier","Char","","",,"","Identifier","Used to tie together a block of related records in a single domain for a subject or pool. This is not the treatment group number.","Perm"
"SENDIG v3.1.1","8","Findings","CL","CLSPID","Mass Identifier","Char","","",,"","Identifier","Mass identifier such as MASS 1 or MASS A. Used when the mass was discovered during the in-life phase and assigned a mass identifier. The mass identification should be unique within the subject, regardless of mass location.","Perm"
"SENDIG v3.1.1","9","Findings","CL","CLTESTCD","Test Short Name","Char","","",,"","Topic","Short name of the measurement, test, or examination described in CLTEST. It can be used as a column name when converting a dataset from a vertical to a horizontal format. The value in CLTESTCD cannot be longer than 8 characters, nor can it start with a number (e.g., ""1TEST"" is not valid). CLTESTCD cannot contain characters other than letters, numbers, or underscores.","Req"
"SENDIG v3.1.1","10","Findings","CL","CLTEST","Test Name","Char","","",,"","Synonym Qualifier","Long name for CLTESTCD. The value in CLTEST cannot be longer than 40 characters.","Req"
"SENDIG v3.1.1","11","Findings","CL","CLCAT","Category for Clinical Observations","Char","C89963","CLCAT",,"","Grouping Qualifier","Used to define a category of the clinical observation.","Req"
"SENDIG v3.1.1","12","Findings","CL","CLSCAT","Subcategory for Clinical Observations","Char","","",,"","Grouping Qualifier","Used to further categorize a group of clinical observations within a category. For example ""Whole Body Appearance"" and ""Sensory Organ Appearance"" may be subcategories within Clinical Signs.","Perm"
"SENDIG v3.1.1","13","Findings","CL","CLBODSYS","Body System or Organ Class","Char","C88026","BODSYS",,"","Record Qualifier","Body system or organ class associated with the measurement performed.","Perm"
"SENDIG v3.1.1","14","Findings","CL","CLORRES","Result or Findings as Collected","Char","","",,"","Result Qualifier","Text description of the finding as originally received or collected. If the examination was not performed on a particular body system, or at the subject level, then the value should be null, and NOT DONE should appear in CLSTAT.","Exp"
"SENDIG v3.1.1","15","Findings","CL","CLSTRESC","Standardized Result in Character Format","Char","","",,"","Result Qualifier","The base finding from CLORRES without modifiers. If the examination was completed and there were no abnormal findings, the value must be NORMAL.","Exp"
"SENDIG v3.1.1","16","Findings","CL","CLRESCAT","Result Category","Char","","",,"","Variable Qualifier","Used to categorize the result of a finding post collection. Examples: Color or Facial.","Perm"
"SENDIG v3.1.1","17","Findings","CL","CLSTAT","Completion Status","Char","C66789","ND",,"","Record Qualifier","Used to indicate examination not done or result is missing. Should be null if a result exists in CLORRES.","Perm"
"SENDIG v3.1.1","18","Findings","CL","CLREASND","Reason Not Done","Char","","",,"","Record Qualifier","Describes why CLSTAT is NOT DONE, such as SUBJECT MORIBUND.","Perm"
"SENDIG v3.1.1","19","Findings","CL","CLLOC","Location of a Finding","Char","","",,"","Record Qualifier","Can be used to specify where a clinical sign occurred. Example: LEFT EAR for skin rash.","Exp"
"SENDIG v3.1.1","20","Findings","CL","CLEVAL","Evaluator","Char","","",,"","Record Qualifier","Role of the person who provided the evaluation. Example: TOX TECHNICIAN, OPHTHALMOLOGIST, VETERINARIAN.","Perm"
"SENDIG v3.1.1","21","Findings","CL","CLSEV","Severity","Char","","",,"","Record Qualifier","Describes the severity or intensity of a particular finding.","Perm"
"SENDIG v3.1.1","22","Findings","CL","CLEXCLFL","Exclusion Flag","Char","C66742","NY",,"","Record Qualifier","Y if the result should be excluded from all calculations, otherwise null.","Perm"
"SENDIG v3.1.1","23","Findings","CL","CLREASEX","Reason for Exclusion","Char","","",,"","Record Qualifier","The reason the result should be excluded from all calculations. Used only when CLEXCLFL is Y.","Perm"
"SENDIG v3.1.1","24","Findings","CL","CLUSCHFL","Unscheduled Flag","Char","C66742","NY",,"","Record Qualifier","Indicates whether the timing of a performed test or observation was unscheduled. If a test or observation was performed based upon a schedule defined in the protocol, this flag should be null. Expected values are Y or null.","Perm"
"SENDIG v3.1.1","25","Findings","CL","VISITDY","Planned Study Day of Collection","Num","","",,"","Timing","Planned study day of collection. Should be an integer.","Perm"
"SENDIG v3.1.1","26","Findings","CL","CLDTC","Date/Time of Observation","Char","","","ISO 8601","","Timing","Date/Time of the clinical observation in ISO 8601 format. For measurements related to a continuous evaluation interval, CLDTC should be used to indicate the start date/time of that interval.","Exp"
"SENDIG v3.1.1","27","Findings","CL","CLENDTC","End Date/Time of Observation","Char","","","ISO 8601","","Timing","Date/Time of end of observation interval, in ISO 8601 format. Should be populated when CLDTC represents the start date/time of a continuous evaluation interval.","Perm"
"SENDIG v3.1.1","28","Findings","CL","CLDY","Study Day of Observation","Num","","",,"","Timing","Study day of observation, in integer days. For measurements related to a continuous evaluation interval, CLDY can be used to indicate start day of that interval. The algorithm for calculations must be relative to the sponsor-defined RFSTDTC variable in the Demographics (DM) domain.","Perm"
"SENDIG v3.1.1","29","Findings","CL","CLENDY","Study Day of End of Observation","Num","","",,"","Timing","Study day of the end of observation, in integer days. Can be populated when CLDY represents the start day of a continuous evaluation interval. The algorithm for calculations must be relative to the sponsor-defined RFSTDTC variable in the Demographics (DM) domain.","Perm"
"SENDIG v3.1.1","30","Findings","CL","CLNOMDY","Nominal Study Day for Tabulations","Num","","",,"","Timing","Nominal study day used for grouping records for observations that may occur on different days into a single reported study day. Should be an integer.","Exp"
"SENDIG v3.1.1","31","Findings","CL","CLNOMLBL","Label for Nominal Study Day","Char","","",,"","Timing","A label for a given value of CLNOMDY as presented in the study report. Examples: ""Week 4,"" ""Day 28,"" ""Terminal Sac"".","Perm"
"SENDIG v3.1.1","32","Findings","CL","CLTPT","Planned Time Point Name","Char","","",,"","Timing","Text description of time when an observation should be taken, as defined in the protocol. This may be represented as an elapsed time relative to a fixed reference point, such as time postdose.","Perm"
"SENDIG v3.1.1","33","Findings","CL","CLTPTNUM","Planned Time Point Number","Num","","",,"","Timing","Numerical version of CLTPT to aid in sorting.","Perm"
"SENDIG v3.1.1","34","Findings","CL","CLELTM","Planned Elapsed Time from Time Point Ref","Char","","","ISO 8601","","Timing","Planned Elapsed time (in ISO 8601 format) relative to a planned reference (CLTPTREF). This variable is useful where there are repetitive measures. Not a clock time or a date time variable. Represented as an ISO 8601 duration. Examples: ""- PT15M"" to represent the period of 15 minutes prior to the reference point indicated by CLTPTREF, or ""PT8H"" to represent the period of 8 hours after the reference point indicated by CLTPTREF.","Perm"
"SENDIG v3.1.1","35","Findings","CL","CLTPTREF","Time Point Reference","Char","","",,"","Timing","Name of the fixed reference point referred to by CLELTM, if used for CLTPTNUM, and CLTPT. It is recommended that CLTPTREF be as descriptive as possible, so the reference time point can be inferred without looking at other variables. Examples: PREVIOUS DOSE, PREVIOUS MEAL.","Perm"
"SENDIG v3.1.1","36","Findings","CL","CLRFTDTC","Date/Time of Reference Time Point","Char","","","ISO 8601","","Timing","Date/Time of the reference time point, CLTPTREF.","Perm"
"SENDIG v3.1.1","1","Findings","DD","STUDYID","Study Identifier","Char","","",,"","Identifier","Unique identifier for a study.","Req"
"SENDIG v3.1.1","2","Findings","DD","DOMAIN","Domain Abbreviation","Char","","",,"DD","Identifier","Two-character abbreviation for the domain.","Req"
"SENDIG v3.1.1","3","Findings","DD","USUBJID","Unique Subject Identifier","Char","","",,"","Identifier","Identifier used to uniquely identify a subject across all studies for all applications or submissions involving the product.","Req"
"SENDIG v3.1.1","4","Findings","DD","DDSEQ","Sequence Number","Num","","",,"","Identifier","Sequence number given to ensure uniqueness of subject records within a domain. May be any valid number.","Req"
"SENDIG v3.1.1","5","Findings","DD","DDTESTCD","Death Diagnosis Short Name","Char","C89966","DDTESTCD",,"","Topic","Short name of the measurement, test, or examination described in DDTEST. It can be used as a column name when converting a dataset from a vertical to a horizontal format. The value in DDTESTCD cannot be longer than 8 characters, nor can it start with a number (e.g., ""1TEST"" is not valid). DDTESTCD cannot contain characters other than letters, numbers, or underscores.","Req"
"SENDIG v3.1.1","6","Findings","DD","DDTEST","Death Diagnosis Name","Char","C89965","DDTEST",,"","Synonym Qualifier","Long name for DDTESTCD. The value in DDTEST cannot be longer than 40 characters.","Req"
"SENDIG v3.1.1","7","Findings","DD","DDORRES","Result or Findings as Collected","Char","","",,"","Result Qualifier","Result of the diagnosis of the subject's cause of death, as originally received or collected.","Req"
"SENDIG v3.1.1","8","Findings","DD","DDSTRESC","Standardized Result in Character Format","Char","","",,"","Result Qualifier","Contains the diagnosis information, copied or derived from DDORRES in a standard format. Examples: UNKNOWN, GAVAGE ERROR.","Exp"
"SENDIG v3.1.1","9","Findings","DD","DDRESCAT","Result Category","Char","","",,"","Variable Qualifier","Used to categorize the result of a finding. Examples: TREATMENT RELATED, NONTREATMENT RELATED, UNDETERMINED, ACCIDENTAL, etc.","Perm"
"SENDIG v3.1.1","10","Findings","DD","DDEVAL","Evaluator","Char","","",,"","Record Qualifier","Role of the person who provided the evaluation. Examples: TOX PATHOLOGIST, PEER REVIEW, SPONSOR, VETERINARIAN.","Perm"
"SENDIG v3.1.1","11","Findings","DD","DDDTC","Date/Time","Char","","","ISO 8601","","Timing","The date/time of subject disposition, in ISO 8601 format.","Perm"
"SENDIG v3.1.1","12","Findings","DD","DDDY","Study Day","Num","","",,"","Timing","Study day of subject disposition, in integer days. The algorithm for calculations must be relative to the sponsor-defined RFSTDTC variable in the Demographics (DM) domain.","Perm"
"SENDIG v3.1.1","1","Findings","FW","STUDYID","Study Identifier","Char","","",,"","Identifier","Unique identifier for a study.","Req"
"SENDIG v3.1.1","2","Findings","FW","DOMAIN","Domain Abbreviation","Char","","",,"FW","Identifier","Two-character abbreviation for the domain.","Req"
"SENDIG v3.1.1","3","Findings","FW","USUBJID","Unique Subject Identifier","Char","","",,"","Identifier","Identifier used to uniquely identify a subject across all studies for all applications or submissions involving the product. Either USUBJID or POOLID must be populated.","Exp"
"SENDIG v3.1.1","4","Findings","FW","POOLID","Pool Identifier","Char","","",,"","Identifier","Identifier used for pooling subjects to assign a single finding to multiple subjects. If POOLID is entered, POOLDEF records must exist for each subject and the USUBJID must be null. Either USUBJID or POOLID must be populated.","Perm"
"SENDIG v3.1.1","5","Findings","FW","FWSEQ","Sequence Number","Num","","",,"","Identifier","The sequence number must be unique for each record within a USUBJID or POOLID, whichever applies for the record.","Req"
"SENDIG v3.1.1","6","Findings","FW","FWGRPID","Group Identifier","Char","","",,"","Identifier","Used to tie together a block of related records in a single domain for a subject or pool. This is not the treatment group number.","Perm"
"SENDIG v3.1.1","7","Findings","FW","FWTESTCD","Food/Water Consumption Short Name","Char","C89970","FWTESTCD",,"","Topic","Short name of the measurement, test, or examination described in FWTEST. It can be used as a column name when converting a dataset from a vertical to a horizontal format. The value in FWTESTCD cannot be longer than 8 characters, nor can it start with a number (e.g., ""1TEST"" is not valid). FWTESTCD cannot contain characters other than letters, numbers, or underscores. Extensible controlled values are FC, FCRELBW, WC, and WCRELBW.","Req"
"SENDIG v3.1.1","8","Findings","FW","FWTEST","Food/Water Consumption Name","Char","C89969","FWTEST",,"","Synonym Qualifier","Long name for FWTESTCD. The value in FWTEST cannot be longer than 40 characters. Extensible controlled values are Food Consumption, Food Consumption Relative to Body Wt, Water Consumption, Water Consumption Relative to Body Wt.","Req"
"SENDIG v3.1.1","9","Findings","FW","FWORRES","Result or Findings as Collected","Char","","",,"","Result Qualifier","Result of the measurement or finding as originally received or collected.","Exp"
"SENDIG v3.1.1","10","Findings","FW","FWORRESU","Unit of the Original Result","Char","C71620","UNIT",,"","Variable Qualifier","The unit for the original result. The unit of the original result should be mapped to a synonymous unit on the Controlled Terminology (http://www.cdisc.org/terminology) list.","Exp"
"SENDIG v3.1.1","11","Findings","FW","FWSTRESC","Standardized Result in Character Format","Char","","",,"","Result Qualifier","Contains the result value for all findings, copied or derived from FWORRES, in a standard format or standard units. FWSTRESC should store all results or findings in character format; if results are numeric, they should also be submitted in numeric format in FWSTRESN.","Exp"
"SENDIG v3.1.1","12","Findings","FW","FWSTRESN","Standardized Result in Numeric Format","Num","","",,"","Result Qualifier","Used for numeric results or findings in standard format; contains the numeric form of FWSTRESC. FWSTRESN should store all numeric test results or findings.","Exp"
"SENDIG v3.1.1","13","Findings","FW","FWSTRESU","Unit of the Standardized Result","Char","C71620","UNIT",,"","Variable Qualifier","Standardized unit used for FWSTRESC and FWSTRESN.","Exp"
"SENDIG v3.1.1","14","Findings","FW","FWSTAT","Completion Status","Char","C66789","ND",,"","Record Qualifier","Used to indicate when a test is not done or result is missing. Should be null if a result exists in FWORRES.","Perm"
"SENDIG v3.1.1","15","Findings","FW","FWREASND","Reason Not Done","Char","","",,"","Record Qualifier","Describes why FWSTAT is NOT DONE, such as FOOD WET.","Perm"
"SENDIG v3.1.1","16","Findings","FW","FWEXCLFL","Exclusion Flag","Char","C66742","NY",,"","Record Qualifier","Y if the result should be excluded from all calculations, otherwise null.","Perm"
"SENDIG v3.1.1","17","Findings","FW","FWREASEX","Reason for Exclusion","Char","","",,"","Record Qualifier","The reason the result should be excluded from all calculations. Used only when FWEXCLFL is Y.","Perm"
"SENDIG v3.1.1","18","Findings","FW","FWDTC","Start Date/Time of Observation","Char","","","ISO 8601","","Timing","Date/Time of the start of the observation in IS0 8601 format.","Exp"
"SENDIG v3.1.1","19","Findings","FW","FWENDTC","End Date/Time of Observation","Char","","","ISO 8601","","Timing","Date/Time of the end of the observation in IS0 8601 format.","Exp"
"SENDIG v3.1.1","20","Findings","FW","FWDY","Study Day of Start of Observation","Num","","",,"","Timing","Study day of the start of the observation, in integer days. The algorithm for calculations must be relative to the sponsor-defined RFSTDTC variable in the Demographics (DM) domain.","Perm"
"SENDIG v3.1.1","21","Findings","FW","FWENDY","Study Day of End of Observation","Num","","",,"","Timing","Study day of the end of the observation, in integer days. The algorithm for calculations must be relative to the sponsor-defined RFSTDTC variable in the Demographics (DM) domain.","Perm"
"SENDIG v3.1.1","1","Findings","LB","STUDYID","Study Identifier","Char","","",,"","Identifier","Unique identifier for a study.","Req"
"SENDIG v3.1.1","2","Findings","LB","DOMAIN","Domain Abbreviation","Char","","",,"LB","Identifier","Two-character abbreviation for the domain.","Req"
"SENDIG v3.1.1","3","Findings","LB","USUBJID","Unique Subject Identifier","Char","","",,"","Identifier","Identifier used to uniquely identify a subject across all studies for all application or submissions involving the product. Either USUBJID or POOLID must be populated.","Exp"
"SENDIG v3.1.1","4","Findings","LB","POOLID","Pool Identifier","Char","","",,"","Identifier","Identifier used for pooling subjects to assign a single finding to multiple subjects. If POOLID is entered, POOLDEF records must exist for each subject and the USUBJID must be null. Either USUBJID or POOLID must be populated.","Perm"
"SENDIG v3.1.1","5","Findings","LB","LBSEQ","Sequence Number","Num","","",,"","Identifier","The sequence number must be unique for each record within a USUBJID or POOLID, whichever applies for the record.","Req"
"SENDIG v3.1.1","6","Findings","LB","LBGRPID","Group Identifier","Char","","",,"","Identifier","Used to tie together a block of related records in a single domain for a subject or pool. This is not the treatment group number.","Perm"
"SENDIG v3.1.1","7","Findings","LB","LBREFID","Specimen Identifier","Char","","",,"","Identifier","Internal or external specimen identifier. Example: 1009570101.","Perm"
"SENDIG v3.1.1","8","Findings","LB","LBSPID","Sponsor-Defined Identifier","Char","","",,"","Identifier","Sponsor-defined reference identifier. Example: Line number on the Lab page.","Perm"
"SENDIG v3.1.1","9","Findings","LB","LBTESTCD","Lab Test or Examination Short Name","Char","C65047","LBTESTCD",,"","Topic","Short name of the measurement, test, or examination described in LBTEST. It can be used as a column name when converting a dataset from a vertical to a horizontal format. The value in LBTESTCD cannot be longer than 8 characters, nor can it start with a number (e.g., ""1TEST"" is not valid). LBTESTCD cannot contain characters other than letters, numbers, or underscores. Examples: ALT, LDH.","Req"
"SENDIG v3.1.1","10","Findings","LB","LBTEST","Lab Test or Examination Name","Char","C67154","LBTEST",,"","Synonym Qualifier","Long name for LBTESTCD. The value in LBTEST cannot be longer than 40 characters. Examples: Alanine Aminotransferase, Lactate Dehydrogenase.","Req"
"SENDIG v3.1.1","11","Findings","LB","LBCAT","Category for Lab Test","Char","","",,"","Grouping Qualifier","Used to define a category of the lab test performed. Examples: URINALYSIS, CLINICAL CHEMISTRY, HEMATOLOGY, etc.","Exp"
"SENDIG v3.1.1","12","Findings","LB","LBSCAT","Subcategory for Lab Test","Char","","",,"","Grouping Qualifier","A further categorization of a test category. Examples: DIFFERENTIAL, LIVER FUNCTION, ELECTROLYTES.","Perm"
"SENDIG v3.1.1","13","Findings","LB","LBORRES","Result or Findings as Collected","Char","","",,"","Result Qualifier","Result of the measurement or finding as originally received or collected.","Exp"
"SENDIG v3.1.1","14","Findings","LB","LBORRESU","Unit of the Original Result","Char","C71620","UNIT",,"","Variable Qualifier","The unit for the original result. The unit of the original result should be mapped to a synonymous unit on the Controlled Terminology (http://www.cdisc.org/terminology) list.","Exp"
"SENDIG v3.1.1","15","Findings","LB","LBORNRLO","Reference Range Lower Limit-Orig Unit","Char","","",,"","Variable Qualifier","Lower end of reference range used at the time of collection for continuous measurements in original units. Should be populated only for continuous results.","Perm"
"SENDIG v3.1.1","16","Findings","LB","LBORNRHI","Reference Range Upper Limit-Orig Unit","Char","","",,"","Variable Qualifier","Upper end of reference range used at the time of collection for continuous measurements in original units. Should be populated only for continuous results.","Perm"
"SENDIG v3.1.1","17","Findings","LB","LBSTRESC","Standardized Result in Character Format","Char","","",,"","Result Qualifier","Contains the result value for all findings, copied or derived from LBORRES, in a standard format or standard units. LBSTRESC should store all results or findings in character format; if results are numeric, they should also be submitted in numeric format in LBSTRESN. For example, if a test has results NONE, NEG, and NEGATIVE in LBORRES and these results effectively have the same meaning, they could be represented in standard format in LBSTRESC as NEGATIVE. For other examples, see general assumptions.","Exp"
"SENDIG v3.1.1","18","Findings","LB","LBSTRESN","Standardized Result in Numeric Format","Num","","",,"","Result Qualifier","Used for numeric results or findings in standard format; contains the numeric form of LBSTRESC. LBSTRESN should store all numeric test results or findings.","Exp"
"SENDIG v3.1.1","19","Findings","LB","LBSTRESU","Unit of the Standardized Result","Char","C71620","UNIT",,"","Variable Qualifier","Standardized unit used for LBSTRESC and LBSTRESN.","Exp"
"SENDIG v3.1.1","20","Findings","LB","LBSTNRLO","Reference Range Lower Limit-Std Unit","Num","","",,"","Variable Qualifier","Lower end of reference range for continuous measurements in standardized units. Should be populated only for continuous results.","Perm"
"SENDIG v3.1.1","21","Findings","LB","LBSTNRHI","Reference Range Upper Limit-Std Unit","Num","","",,"","Variable Qualifier","Upper end of reference range for continuous measurements in standardized units. Should be populated only for continuous results.","Perm"
"SENDIG v3.1.1","22","Findings","LB","LBSTNRC","Reference Range for Char Rslt-Std Unit","Char","","",,"","Variable Qualifier","For normal range values that are character in ordinal scale or if categorical ranges were supplied (e.g., -1 to +1; NEGATIVE TO TRACE).","Perm"
"SENDIG v3.1.1","23","Findings","LB","LBNRIND","Reference Range Indicator","Char","","",,"","Variable Qualifier","Indicates where value falls with respect to reference range defined by LBORNRLO and LBORNRHI, LBSTRNRLO and LBSTNRHI, or by LBSTNRC. Examples: NORMAL, ABNORMAL, HIGH, LOW. \n Sponsors should specify in the study metadata (Comments column in the data definition file) whether LBNRIND refers to the original or standard reference ranges and results. Should not be used to indicate biological significance.","Perm"
"SENDIG v3.1.1","24","Findings","LB","LBSTAT","Completion Status","Char","C66789","ND",,"","Record Qualifier","Used to indicate when a test is not done or result is missing. Should be null if a result exists in LBORRES.","Perm"
"SENDIG v3.1.1","25","Findings","LB","LBREASND","Reason Not Done","Char","","",,"","Record Qualifier","Describes why LBSTAT is NOT DONE, such as BROKEN EQUIPMENT or SPECIMEN LOST.","Perm"
"SENDIG v3.1.1","26","Findings","LB","LBNAM","Laboratory Name","Char","","",,"","Record Qualifier","Name or identifier of the laboratory or vendor that provided the test results.","Perm"
"SENDIG v3.1.1","27","Findings","LB","LBSPEC","Specimen Material Type","Char","C77529","SPEC",,"","Record Qualifier","Defines the type of specimen analyzed to obtain the measurement or finding. Examples: WHOLE BLOOD, SERUM, PLASMA, URINE, LIVER, HEART.","Exp"
"SENDIG v3.1.1","28","Findings","LB","LBANTREG","Anatomical Region of Specimen","Char","","",,"","Variable Qualifier","Defines the specific anatomical or biological region of a tissue, organ specimen, or the region from which the specimen was obtained, such as a section or part of what is defined in the LBSPEC variable. If the anatomical region is not included in the specimen description LBSPEC, it may be included in this variable. This field can be a combination of terms where needed. This field can be null if not applicable. Examples: CORTEX, MEDULLA, MUCOSA, SEROSA, ISLET, ZONA FASICULATA, ZONA RETICULARIS, CRANIAL, MEDIAN, ACCESSORY, SPINAL, LUMBAR, FRONTAL.","Perm"
"SENDIG v3.1.1","29","Findings","LB","LBSPCCND","Specimen Condition","Char","","",,"","Record Qualifier","Free or standardized text describing the condition of the specimen. Examples: HEMOLYZED, ICTERIC, LIPEMIC","Perm"
"SENDIG v3.1.1","30","Findings","LB","LBSPCUFL","Specimen Usability for the Test","Char","C66742","NY",,"","Record Qualifier","Describes the usability of the specimen for the test. Should be N if the specimen is not usable; otherwise it should be null.","Perm"
"SENDIG v3.1.1","31","Findings","LB","LBLOC","Specimen Collection Location","Char","","",,"","Record Qualifier","Location relevant to the collection of specimen for the measurement.","Perm"
"SENDIG v3.1.1","32","Findings","LB","LBLAT","Specimen Laterality within Subject","Char","C99073","LAT",,"","Variable Qualifier","Qualifier for laterality of the specimen within the subject for paired specimens. Examples: LEFT, RIGHT, BILATERAL.","Perm"
"SENDIG v3.1.1","33","Findings","LB","LBDIR","Specimen Directionality within Subject","Char","C99074","DIR",,"","Variable Qualifier","Qualifier for directionality of the specimen within the subject. Examples: DORSAL, PROXIMAL.","Perm"
"SENDIG v3.1.1","34","Findings","LB","LBPORTOT","Portion or Totality","Char","C99075","PORTOT",,"","Variable Qualifier","Qualifier for anatomical location or specimen further detailing the portion or totality, which means arrangement of, or apportioning of. Examples: ENTIRE, SINGLE, SEGMENT, MANY.","Perm"
"SENDIG v3.1.1","35","Findings","LB","LBMETHOD","Method of Test or Examination","Char","","",,"","Record Qualifier","Method of the test or examination. Examples: EIA (Enzyme Immunoassay), ELECTROPHORESIS, DIPSTICK.","Exp"
"SENDIG v3.1.1","36","Findings","LB","LBBLFL","Baseline Flag","Char","C66742","NY",,"","Record Qualifier","A baseline indicator may be used to calculate differences or changes from baseline. Value should be Y or null. The baseline flag is sponsor defined.","Exp"
"SENDIG v3.1.1","37","Findings","LB","LBFAST","Fasting Status","Char","C66742","NY",,"","Record Qualifier","Indicator used to identify fasting status. The value should be Y or null","Perm"
"SENDIG v3.1.1","38","Findings","LB","LBDRVFL","Derived Flag","Char","C66742","NY",,"","Record Qualifier","Used to indicate a derived record. The value should be Y or null. Records that represent the average of other records, or are not as originally received or collected are examples of records that might be derived for the submission datasets.","Perm"
"SENDIG v3.1.1","39","Findings","LB","LBTOX","Toxicity","Char","","",,"","Variable Qualifier","Description of toxicity quantified by LBTOXGR. The sponsor is expected to provide the name and version of the scale used to map the terms, utilizing the data definition file external codelist attributes.","Perm"
"SENDIG v3.1.1","40","Findings","LB","LBTOXGR","Standard Toxicity Grade","Char","","",,"","Record Qualifier","Records toxicity grade value using a standard toxicity scale (such as the NCI CTCAE). If value is from a numeric scale, represent only the number (e.g., ""2"" and not ""Grade 2""). The sponsor is expected to provide the name of the scale and version used to map the terms, utilizing the data definition file external codelist attributes.","Perm"
"SENDIG v3.1.1","41","Findings","LB","LBEXCLFL","Exclusion Flag","Char","C66742","NY",,"","Record Qualifier","""Y"" if the result should be excluded from all calculations, otherwise null.","Perm"
"SENDIG v3.1.1","42","Findings","LB","LBREASEX","Reason for Exclusion","Char","","",,"","Record Qualifier","The reason the result should be excluded from all calculations. Used only when LBEXCLFL is ""Y"".","Perm"
"SENDIG v3.1.1","43","Findings","LB","LBUSCHFL","Unscheduled Flag","Char","C66742","NY",,"","Record Qualifier","Indicates whether the timing of the specimen collection was unscheduled. If a specimen collection was performed based upon a schedule defined in the protocol, this flag should be null. Expected values are ""Y"" or null.","Exp"
"SENDIG v3.1.1","44","Findings","LB","VISITDY","Planned Study Day of Collection","Num","","",,"","Timing","Planned study day of specimen collection. Should be an integer.","Perm"
"SENDIG v3.1.1","45","Findings","LB","LBDTC","Date/Time of Specimen Collection","Char","","","ISO 8601","","Timing","Date/Time of specimen collection, in IS0 8601 format.","Exp"
"SENDIG v3.1.1","46","Findings","LB","LBENDTC","End Date/Time of Specimen Collection","Char","","","ISO 8601","","Timing","Date/Time of the end of specimen collection in ISO 8601 format. Should be populated only for continuous sample collection.","Perm"
"SENDIG v3.1.1","47","Findings","LB","LBDY","Study Day of Specimen Collection","Num","","",,"","Timing","Study day of specimen collection, in integer days. The algorithm for calculations must be relative to the sponsor-defined RFSTDTC variable in the Demographics (DM) domain.","Perm"
"SENDIG v3.1.1","48","Findings","LB","LBENDY","Study Day of End of Specimen Collection","Num","","",,"","Timing","Study day of the end of specimen collection, in integer days. The algorithm for calculations must be relative to the sponsor-defined RFSTDTC variable in the Demographics (DM) domain.","Perm"
"SENDIG v3.1.1","49","Findings","LB","LBNOMDY","Nominal Study Day for Tabulations","Num","","",,"","Timing","Nominal study day used for grouping records for specimen collections that may occur on different days into a single reported study day. Should be an integer.","Exp"
"SENDIG v3.1.1","50","Findings","LB","LBNOMLBL","Label for Nominal Study Day","Char","","",,"","Timing","A label for a given value of LBNOMDY as presented in the study report. Examples: Week 4, Day 28, Terminal Sac.","Perm"
"SENDIG v3.1.1","51","Findings","LB","LBTPT","Planned Time Point Name","Char","","",,"","Timing","Text Description of time when specimen should be taken. This may be represented as an elapsed time relative to a fixed reference point, such as time of last dose. See LBTPTNUM and LBTPTREF. Examples: Start, 5 min post.","Perm"
"SENDIG v3.1.1","52","Findings","LB","LBTPTNUM","Planned Time Point Number","Num","","",,"","Timing","Numerical version of LBTPT to aid in sorting.","Perm"
"SENDIG v3.1.1","53","Findings","LB","LBELTM","Planned Elapsed Time from Time Point Ref","Char","","","ISO 8601","","Timing","Elapsed time (in ISO 8601 format) relative to a planned fixed reference (LBTPTREF). This variable is useful where there are repetitive measures. Not a clock time or a date time variable. Represented as an ISO 8601 duration. Examples: ""- P15M"" to represent the period of 15 minutes prior to the reference point indicated by LBTPTREF, or ""P8H"" to represent the period of 8 hours after the reference point indicated by LBTPTREF.","Perm"
"SENDIG v3.1.1","54","Findings","LB","LBTPTREF","Time Point Reference","Char","","",,"","Timing","Name of the fixed reference point referred to by LBELTM, if used for LBTPTNUM, and LBTPT. It is recommended that LBTPTREF be as descriptive as possible so the reference time point can be inferred without looking at other variables. Examples: PREVIOUS DOSE, PREVIOUS MEAL.","Perm"
"SENDIG v3.1.1","55","Findings","LB","LBRFTDTC","Date/Time of Reference Time Point","Char","","","ISO 8601","","Timing","Date/Time of the reference time point, LBTPTREF","Perm"
"SENDIG v3.1.1","1","Findings","MA","STUDYID","Study Identifier","Char","","",,"","Identifier","Unique identifier for a study.","Req"
"SENDIG v3.1.1","2","Findings","MA","DOMAIN","Domain Abbreviation","Char","","",,"MA","Identifier","Two-character code for the domain.","Req"
"SENDIG v3.1.1","3","Findings","MA","USUBJID","Unique Subject Identifier","Char","","",,"","Identifier","Identifier used to uniquely identify a subject across all studies for all applications or submissions involving the product.","Req"
"SENDIG v3.1.1","4","Findings","MA","FOCID","Focus of Study-Specific Interest","Char","","",,"","Identifier","Identification of a focus of study-specific interest on or within a subject or specimen as defined in the protocol, for which a measurement, test, or examination was performed. An example could be a drug application site, e.g., ""Injection site 1,"" ""Biopsy site 1,"" ""Treated site 1."" the value in this variable should have inherent semantic value.","Perm"
"SENDIG v3.1.1","5","Findings","MA","MASEQ","Sequence Number","Num","","",,"","Identifier","Sequence number given to ensure uniqueness of subject records within a domain. May be any valid number.","Req"
"SENDIG v3.1.1","6","Findings","MA","MAGRPID","Group Identifier","Char","","",,"","Identifier","Used to tie together a block of related records in a single domain for a subject. This is not the treatment group number.","Perm"
"SENDIG v3.1.1","7","Findings","MA","MAREFID","Specimen Reference Identifier","Char","","",,"","Identifier","Internal or external specimen identifier. Example: 1009570101.","Perm"
"SENDIG v3.1.1","8","Findings","MA","MASPID","Mass Identifier","Char","","",,"","Identifier","Mass identifier such as MASS 1 or MASS A. Used when the mass was discovered during the in-life phase or during pathology and was assigned a mass identifier. The mass identification should be unique within the subject, regardless of mass location.","Perm"
"SENDIG v3.1.1","9","Findings","MA","MATESTCD","Macroscopic Examination Short Name","Char","C89972","MATESTCD",,"","Topic","Short name of the measurement, test, or examination described in MATEST. It can be used as a column name when converting a dataset from a vertical to a horizontal format. The value in MATESTCD cannot be longer than 8 characters, nor can it start with a number (e.g., ""1TEST"" is not valid). MATESTCD cannot contain characters other than letters, numbers, or underscores.","Req"
"SENDIG v3.1.1","10","Findings","MA","MATEST","Macroscopic Examination Name","Char","C89971","MATEST",,"","Synonym Qualifier","Long name for MATESTCD. The value in MATEST cannot be longer than 40 characters. Extensible controlled values are Gross Pathological Examination, Clinical Signs Follow-up.","Req"
"SENDIG v3.1.1","11","Findings","MA","MABODSYS","Body System or Organ Class","Char","C88026","BODSYS",,"","Record Qualifier","Body system or organ class associated with the specimen examined.","Perm"
"SENDIG v3.1.1","12","Findings","MA","MAORRES","Result or Findings as Collected","Char","","",,"","Result Qualifier","Text description of the findings as originally received or collected, including the base gross pathological observation and any modifiers, such as severity, origin, classification, size, color, etc.","Exp"
"SENDIG v3.1.1","13","Findings","MA","MASTRESC","Standardized Result in Character Format","Char","","",,"","Result Qualifier","Contains only the base gross pathological observation (e.g., ENLARGED) from MAORRES, without any modifiers. If the examination was completed and there were no findings, the value must be UNREMARKABLE.","Exp"
"SENDIG v3.1.1","14","Findings","MA","MASTAT","Completion Status","Char","C66789","ND",,"","Record Qualifier","Used to indicate examination not done or result is missing. Should be null if a result exists in MAORRES.","Perm"
"SENDIG v3.1.1","15","Findings","MA","MAREASND","Reason Not Done","Char","","",,"","Record Qualifier","Describes why MASTAT is NOT DONE. Example: Tissue not examined, Tissue Autolyzed.","Perm"
"SENDIG v3.1.1","16","Findings","MA","MANAM","Laboratory Name","Char","","",,"","Record Qualifier","Name or identifier of the laboratory or vendor that provided the test results.","Perm"
"SENDIG v3.1.1","17","Findings","MA","MASPEC","Specimen Material Type","Char","C77529","SPEC",,"","Record Qualifier","Defines the type of tissue, organ, or fluid examined. Examples: GLAND, ADRENAL; KIDNEY; VESSEL, LYMPHATIC. See also Assumption 4.b.","Exp"
"SENDIG v3.1.1","18","Findings","MA","MAANTREG","Anatomical Region of Specimen","Char","","",,"","Variable Qualifier","Defines the specific anatomical or biological region of a tissue, organ specimen, or the region from which the specimen was obtained, such as a section or part of what is defined in the MASPEC variable. If the anatomical region is not included in the specimen description MASPEC, it may be included in this variable. This field can be a combination of terms where needed. This field can be null if not applicable. Examples: CORTEX, MEDULLA, MUCOSA, SEROSA, ISLET, ZONA FASICULATA, ZONA RETICULARIS, CRANIAL, MEDIAN, ACCESSORY, SPINAL, LUMBAR, FRONTAL.","Perm"
"SENDIG v3.1.1","19","Findings","MA","MASPCCND","Specimen Condition","Char","","",,"","Record Qualifier","Free or standardized text describing the condition of the specimen. Example: AUTOLYZED.","Perm"
"SENDIG v3.1.1","20","Findings","MA","MASPCUFL","Specimen Usability for the Test","Char","C66742","NY",,"","Record Qualifier","Describes the usability of the specimen for the test. Should be ""N"" if the specimen is not usable; otherwise it should be null.","Perm"
"SENDIG v3.1.1","21","Findings","MA","MALAT","Specimen Laterality within Subject","Char","C99073","LAT",,"","Variable Qualifier","Qualifier for laterality of the specimen within the subject for paired specimens. Examples: LEFT, RIGHT, BILATERAL.","Perm"
"SENDIG v3.1.1","22","Findings","MA","MADIR","Specimen Directionality within Subject","Char","C99074","DIR",,"","Variable Qualifier","Qualifier for directionality of the specimen within the subject. Examples: DORSAL, PROXIMAL.","Perm"
"SENDIG v3.1.1","23","Findings","MA","MAPORTOT","Portion or Totality","Char","C99075","PORTOT",,"","Variable Qualifier","Qualifier for anatomical location or specimen further detailing the portion or totality, which means arrangement of, or apportioning of. Examples: ENTIRE, SINGLE, SEGMENT, MANY.","Perm"
"SENDIG v3.1.1","24","Findings","MA","MAEVAL","Evaluator","Char","","",,"","Record Qualifier","Role of the person who provided the evaluation. Used only for results that are subjective (i.e., assigned by a person or a group). Examples: PRINCIPAL PATHOLOGIST, PEER REVIEW, SPONSOR PATHOLOGIST.","Perm"
"SENDIG v3.1.1","25","Findings","MA","MASEV","Severity","Char","C90000","SEV",,"","Record Qualifier","Describes the severity or intensity of a particular finding. Examples: MILD, MODERATE, SEVERE.","Perm"
"SENDIG v3.1.1","26","Findings","MA","MADTHREL","Relationship to Death","Char","C66742","NY",,"","Record Qualifier","Describes the relationship of a particular finding to the death of a subject (""Y"" = caused death, ""N"" = did not cause death, ""U"" = unknown). May be left null if not available.","Perm"
"SENDIG v3.1.1","27","Findings","MA","MADTC","Date/Time","Char","","","ISO 8601","","Timing","For a specimen collected or observed post mortem, this is the date/time of subject disposition in ISO 8601 format.","Perm"
"SENDIG v3.1.1","28","Findings","MA","MADY","Study Day","Num","","",,"","Timing","For a specimen collected or observed post mortem, this is the study day of subject disposition, in integer days. The algorithm for calculations must be relative to the sponsor-defined RFSTDTC variable in the Demographics (DM) domain.","Perm"
"SENDIG v3.1.1","1","Findings","MI","STUDYID","Study Identifier","Char","","",,"","Identifier","Unique identifier for a study.","Req"
"SENDIG v3.1.1","2","Findings","MI","DOMAIN","Domain Abbreviation","Char","","",,"MI","Identifier","Two-character abbreviation for the domain.","Req"
"SENDIG v3.1.1","3","Findings","MI","USUBJID","Unique Subject Identifier","Char","","",,"","Identifier","Identifier used to uniquely identify a subject across all studies for all applications or submissions involving the product.","Req"
"SENDIG v3.1.1","4","Findings","MI","FOCID","Focus of Study-Specific Interest","Char","","",,"","Identifier","Identification of a focus of study-specific interest on or within a subject or specimen as defined in the protocol for which a measurement, test, or examination was performed. An example could be a drug application site, e.g., ""Injection site 1,"" ""Biopsy site 1,"" ""Treated site 1."" the value in this variable should have inherent semantic value.","Perm"
"SENDIG v3.1.1","5","Findings","MI","MISEQ","Sequence Number","Num","","",,"","Identifier","Sequence number given to ensure uniqueness of subject records within a domain. May be any valid number.","Req"
"SENDIG v3.1.1","6","Findings","MI","MIGRPID","Group Identifier","Char","","",,"","Identifier","Used to tie together a block of related records in a single domain for a subject. This is not the treatment group number.","Perm"
"SENDIG v3.1.1","7","Findings","MI","MIREFID","Specimen Reference Identifier","Char","","",,"","Identifier","Internal or external specimen identifier. Example: Specimen barcode number.","Perm"
"SENDIG v3.1.1","8","Findings","MI","MISPID","Mass Identifier","Char","","",,"","Identifier","Mass identifier such as MASS 1 or MASS A. Used when the mass was discovered during the in-life phase or during pathology and was assigned a mass identifier. The mass identification should be unique within the subject, regardless of mass location.","Perm"
"SENDIG v3.1.1","9","Findings","MI","MITESTCD","Microscopic Examination Short Name","Char","C89974","MITESTCD",,"","Topic","Short name of the measurement, test, or examination described in MITEST. It can be used as a column name when converting a dataset from a vertical to a horizontal format. The value in MITESTCD cannot be longer than 8 characters, nor can it start with a number (e.g., ""1TEST"" is not valid). MITESTCD cannot contain characters other than letters, numbers, or underscores. Extensible controlled value is MIEXAM covering an assessment by microscope (e.g., light, elctron, confocal, etc).","Req"
"SENDIG v3.1.1","10","Findings","MI","MITEST","Microscopic Examination Name","Char","C89973","MITEST",,"","Synonym Qualifier","Long name for MITESTCD. The value in MITEST cannot be longer than 40 characters. Extensible controlled value is Microscopic Examination.","Req"
"SENDIG v3.1.1","11","Findings","MI","MIBODSYS","Body System or Organ Class","Char","C88026","BODSYS",,"","Record Qualifier","Body system or organ class associated with the specimen examined.","Perm"
"SENDIG v3.1.1","12","Findings","MI","MIORRES","Result or Findings as Collected","Char","","",,"","Result Qualifier","Microscopic finding as originally recorded, including all modifiers.","Exp"
"SENDIG v3.1.1","13","Findings","MI","MISTRESC","Standardized Result in Character Format","Char","C120531; C88025","NONNEO; NEOPLASM",,"","Result Qualifier","For non-neoplastic findings, contains only the base pathological process (e.g., NECROSIS) without any modifiers such as severity, distribution, chronicity or characteristics. If the examination was completed and there were no findings, the value must be UNREMARKABLE. The base pathological process from MIORRES should be mapped to a synonymous term from the controlled list, NONNEO, where possible. \n Neoplastic findings must be populated using the NEOPLASM controlled list.","Exp"
"SENDIG v3.1.1","14","Findings","MI","MIRESCAT","Result Category","Char","C90017","MIRESCAT",,"","Variable Qualifier","Used to categorize the result of a finding. Example: MALIGNANT for tumor findings or NON-NEOPLASTIC for pathology findings.","Perm"
"SENDIG v3.1.1","15","Findings","MI","MICHRON","Chronicity of Finding","Char","C120529","CHRNCTY",,"","Variable Qualifier","Describes the apparent relative duration of a particular finding. Examples: ACUTE, CHRONIC.","Exp"
"SENDIG v3.1.1","16","Findings","MI","MIDISTR","Distribution Pattern of Finding","Char","C120530","DSTRBN",,"","Variable Qualifier","Distribution pattern of a particular finding(s) within the examined area. Examples: DIFFUSE, FOCAL, MULTIFOCAL.","Exp"
"SENDIG v3.1.1","17","Findings","MI","MISTAT","Completion Status","Char","C66789","ND",,"","Record Qualifier","Used to indicate a test was not done or a test was attempted but did not generate a result. Should be null or have a value of NOT DONE.","Perm"
"SENDIG v3.1.1","18","Findings","MI","MIREASND","Reason Not Done","Char","","",,"","Record Qualifier","Describes why MISTAT is NOT DONE, such as SAMPLE AUTOLYZED or SPECIMEN LOST.","Perm"
"SENDIG v3.1.1","19","Findings","MI","MINAM","Laboratory Name","Char","","",,"","Record Qualifier","Name or identifier of the laboratory or vendor that provided the test results.","Perm"
"SENDIG v3.1.1","20","Findings","MI","MISPEC","Specimen Material Type","Char","C77529","SPEC",,"","Record Qualifier","Defines the type of tissue, orgain, or fluid specimen examined. Examples: LIVER, HEART, BONE MARROW.","Req"
"SENDIG v3.1.1","21","Findings","MI","MIANTREG","Anatomical Region of Specimen","Char","","",,"","Variable Qualifier","The protocol-defined subregion of the specimen examined. Example: Cortex or Medulla (if the MISPEC is, for example, GLAND, ADRENAL).","Perm"
"SENDIG v3.1.1","22","Findings","MI","MISPCCND","Specimen Condition","Char","","",,"","Record Qualifier","Free or standardized text describing the condition of the specimen. Example: AUTOLYZED.","Exp"
"SENDIG v3.1.1","23","Findings","MI","MISPCUFL","Specimen Usability for the Test","Char","C66742","NY",,"","Record Qualifier","Describes the usability of the specimen for the test. Should be ""N"" if the specimen is not usable; otherwise it should be null.","Exp"
"SENDIG v3.1.1","24","Findings","MI","MILAT","Specimen Laterality within Subject","Char","C99073","LAT",,"","Variable Qualifier","Qualifier for laterality of the specimen within the subject for paired specimens. Examples: LEFT, RIGHT, BILATERAL.","Perm"
"SENDIG v3.1.1","25","Findings","MI","MIDIR","Specimen Directionality within Subject","Char","C99074","DIR",,"","Variable Qualifier","Qualifier for directionality of the specimen within the subject. Examples: DORSAL, PROXIMAL.","Perm"
"SENDIG v3.1.1","26","Findings","MI","MIMETHOD","Method of Test or Examination","Char","","",,"","Record Qualifier","Method of the test or examination. This could be different types of staining used for the slides whenever appropriate. Example: H&E.","Perm"
"SENDIG v3.1.1","27","Findings","MI","MIEVAL","Evaluator","Char","","",,"","Record Qualifier","Role of the person who provided the evaluation. Examples: TOX PATHOLOGIST, PEER REVIEW, SPONSOR PATHOLOGIST.","Perm"
"SENDIG v3.1.1","28","Findings","MI","MISEV","Severity","Char","C90000","SEV",,"","Record Qualifier","Describes the severity of a particular finding.","Exp"
"SENDIG v3.1.1","29","Findings","MI","MIDTHREL","Relationship to Death","Char","C66742","NY",,"","Record Qualifier","Describes the relationship of a particular finding to the death of a subject (""Y"" = caused death, ""N"" = did not cause death, ""U"" = unknown). May be left null if not available.","Perm"
"SENDIG v3.1.1","30","Findings","MI","MIDTC","Date/Time","Char","","","ISO 8601","","Timing","For a specimen collected or observed post mortem, this is the date/time of subject disposition, in ISO 8601 format.","Perm"
"SENDIG v3.1.1","31","Findings","MI","MIDY","Study Day","Num","","",,"","Timing","For a specimen collected or observed post mortem, this is the study day of subject disposition, in integer days. The algorithm for calculations must be relative to the sponsor-defined RFSTDTC variable in the Demographics (DM) domain.","Perm"
"SENDIG v3.1.1","1","Findings","OM","STUDYID","Study Identifier","Char","","",,"","Identifier","Unique identifier for a study.","Req"
"SENDIG v3.1.1","2","Findings","OM","DOMAIN","Domain Abbreviation","Char","","",,"OM","Identifier","Two-character abbreviation for the domain.","Req"
"SENDIG v3.1.1","3","Findings","OM","USUBJID","Unique Subject Identifier","Char","","",,"","Identifier","Identifier used to uniquely identify a subject across all studies for all applications or submissions involving the product.","Req"
"SENDIG v3.1.1","4","Findings","OM","OMSEQ","Sequence Number","Num","","",,"","Identifier","Sequence number given to ensure uniqueness of subject records within a domain. May be any valid number.","Req"
"SENDIG v3.1.1","5","Findings","OM","OMTESTCD","Test Short Name","Char","C89977","OMTESTCD",,"","Topic","Short name of the measurement, test, or examination described in OMTEST. It can be used as a column name when converting a dataset from a vertical to a horizontal format. The value in OMTESTCD cannot be longer than 8 characters, nor can it start with a number (e.g., ""1TEST"" is not valid). OMTESTCD cannot contain characters other than letters, numbers, or underscores.","Req"
"SENDIG v3.1.1","6","Findings","OM","OMTEST","Test Name","Char","C89976","OMTEST",,"","Synonym Qualifier","Long name for OMTESTCD. The value in OMTEST cannot be longer than 40 characters.","Req"
"SENDIG v3.1.1","7","Findings","OM","OMORRES","Result or Findings as Collected","Char","","",,"","Result Qualifier","Result of the measurement or finding as originally received or collected.","Exp"
"SENDIG v3.1.1","8","Findings","OM","OMORRESU","Unit of the Original Result","Char","C71620","UNIT",,"","Variable Qualifier","The unit for the original result. The unit of the original result should be mapped to a synonymous unit on the Controlled Terminology (http://www.cdisc.org/terminology) list.","Exp"
"SENDIG v3.1.1","9","Findings","OM","OMSTRESC","Standardized Result in Character Format","Char","","",,"","Result Qualifier","Contains the result value for all findings, copied or derived from OMORRES in a standard format or in standard units. OMSTRESC should store all results or findings in character format; if results are numeric, they should also be submitted in numeric format in OMSTRESN.","Exp"
"SENDIG v3.1.1","10","Findings","OM","OMSTRESN","Standardized Result in Numeric Format","Num","","",,"","Result Qualifier","Used for numeric results or findings in standard format; contains the numeric form of OMSTRESC. OMSTRESN should store all numeric test results or findings.","Exp"
"SENDIG v3.1.1","11","Findings","OM","OMSTRESU","Unit of the Standardized Result","Char","C71620","UNIT",,"","Variable Qualifier","Standardized unit used for OMSTRESC and OMSTRESN.","Exp"
"SENDIG v3.1.1","12","Findings","OM","OMSTAT","Completion Status","Char","C66789","ND",,"","Record Qualifier","Used to indicate when a test is not done or result is missing. Should be null if a result exists in OMORRES.","Perm"
"SENDIG v3.1.1","13","Findings","OM","OMREASND","Reason Not Done","Char","","",,"","Record Qualifier","Describes why OMSTAT is NOT DONE, such as BROKEN EQUIPMENT or TECHNICIAN OVERSIGHT.","Perm"
"SENDIG v3.1.1","14","Findings","OM","OMSPEC","Specimen Material Type","Char","C77529","SPEC",,"","Record Qualifier","Defines the type of tissue, organ, or fluid specimen used as the object for the finding. Examples: GLAND, ADRENAL, KIDNEY, VESSEL, LYMPHATIC.","Req"
"SENDIG v3.1.1","15","Findings","OM","OMANTREG","Anatomical Region of Specimen","Char","","",,"","Variable Qualifier","Defines the specific anatomical or biological region of a tissue, organ specimen, or the region from which the specimen was obtained, such as a section or part of what is defined in the OMSPEC variable. If the anatomical region is not included in the specimen description OMSPEC, it may be included in this variable. This field can be a combination of terms where needed. This field can be blank if not applicable. Examples: CORTEX, MEDULLA, MUCOSA, SEROSA, ISLET, ZONA FASICULATA, ZONA RETICULARIS, CRANIAL, MEDIAN, ACCESSORY, SPINAL, LUMBAR, FRONTAL.","Perm"
"SENDIG v3.1.1","16","Findings","OM","OMSPCCND","Specimen Condition","Char","","",,"","Record Qualifier","Free or standardized text describing the condition of the specimen. Example: FIXED.","Perm"
"SENDIG v3.1.1","17","Findings","OM","OMSPCUFL","Specimen Usability for the Test","Char","C66742","NY",,"","Record Qualifier","Describes the usability of the specimen for the test. Should be ""N"" if the specimen is not usable; otherwise it should be null.","Perm"
"SENDIG v3.1.1","18","Findings","OM","OMLAT","Specimen Laterality within Subject","Char","C99073","LAT",,"","Variable Qualifier","Qualifier for laterality of the specimen within the subject for paired specimens. Examples: LEFT, RIGHT, BILATERAL.","Perm"
"SENDIG v3.1.1","19","Findings","OM","OMDIR","Specimen Directionality within Subject","Char","C99074","DIR",,"","Variable Qualifier","Qualifier for directionality of the specimen within the subject. Examples: DORSAL, PROXIMAL.","Perm"
"SENDIG v3.1.1","20","Findings","OM","OMPORTOT","Portion or Totality","Char","C99075","PORTOT",,"","Variable Qualifier","Qualifier for anatomical location or specimen further detailing the portion or totality, which means arrangement of, or apportioning of. Examples: ENTIRE, SINGLE, SEGMENT, MANY.","Perm"
"SENDIG v3.1.1","21","Findings","OM","OMEXCLFL","Exclusion Flag","Char","C66742","NY",,"","Record Qualifier","""Y"" if the result should be excluded from all calculations, otherwise null.","Perm"
"SENDIG v3.1.1","22","Findings","OM","OMREASEX","Reason for Exclusion","Char","","",,"","Record Qualifier","The reason the result should be excluded from all calculations. Used only when OMEXCLFL is ""Y"".","Perm"
"SENDIG v3.1.1","23","Findings","OM","OMDTC","Date/Time Organ Measured","Char","","","ISO 8601","","Timing","Date/Time of specimen/tissue weighing, in ISO 8601 format.","Exp"
"SENDIG v3.1.1","24","Findings","OM","OMDY","Study Day of Measurement","Num","","",,"","Timing","Study day of specimen/tissue weighing, in integer days. The algorithm for calculations must be relative to the sponsor-defined RFSTDTC variable in the Demographics (DM) domain.","Perm"
"SENDIG v3.1.1","25","Findings","OM","OMNOMDY","Nominal Study Day for Tabulations","Num","","",,"","Timing","Nominal study day: Used for grouping records for observations that may occur on different days into a single reported study day. Should be an integer.","Exp"
"SENDIG v3.1.1","26","Findings","OM","OMNOMLBL","Label for Nominal Study Day","Char","","",,"","Timing","A label for a given value of OMNOMDY as presented in the study report (examples: ""Week 4,"" ""Day 28,"" ""Terminal Sac"").","Perm"
"SENDIG v3.1.1","1","Findings","PM","STUDYID","Study Identifier","Char","","",,"","Identifier","Unique identifier for a study.","Req"
"SENDIG v3.1.1","2","Findings","PM","DOMAIN","Domain Abbreviation","Char","","",,"PM","Identifier","Two-character abbreviation for the domain.","Req"
"SENDIG v3.1.1","3","Findings","PM","USUBJID","Unique Subject Identifier","Char","","",,"","Identifier","Identifier used to uniquely identify a subject across all studies for all applications or submissions involving the product.","Req"
"SENDIG v3.1.1","4","Findings","PM","PMSEQ","Sequence Number","Num","","",,"","Identifier","Sequence number given to ensure uniqueness of subject records within a domain. May be any valid number.","Req"
"SENDIG v3.1.1","5","Findings","PM","PMGRPID","Group Identifier","Char","","",,"","Identifier","Used to tie together a block of related records in a single domain for a subject. This is not the treatment group number.","Perm"
"SENDIG v3.1.1","6","Findings","PM","PMSPID","Mass Identifier","Char","","",,"","Identifier","Mass identifier such as MASS 1 or MASS A. Used when the mass was discovered during the in-life phase or during pathology and was assigned a mass identifier. The mass identification should be unique within the subject, regardless of mass location.","Exp"
"SENDIG v3.1.1","7","Findings","PM","PMTESTCD","Test Short Name","Char","C95121","PHSPRPCD",,"","Topic","Short name of the measurement, test, or examination described in PMTEST. It can be used as a column name when converting a dataset from a vertical to a horizontal format. The value in PMTESTCD cannot be longer than 8 characters, nor can it start with a number (e.g., ""1TEST"" is not valid). PMTESTCD cannot contain characters other than letters, numbers, or underscores.","Req"
"SENDIG v3.1.1","8","Findings","PM","PMTEST","Test Name","Char","C95120","PHSPRP",,"","Synonym Qualifier","Long name for PMTESTCD. The value in PMTEST cannot be longer than 40 characters.","Req"
"SENDIG v3.1.1","9","Findings","PM","PMORRES","Result or Findings as Collected","Char","","",,"","Variable Qualifier","Text description of findings as originally received or collected. If the examination was not performed, then the value should be null, and NOT DONE should appear in PMSTAT.","Exp"
"SENDIG v3.1.1","10","Findings","PM","PMORRESU","Unit of the Original Result","Char","C71620","UNIT",,"","Variable Qualifier","Units for PMORRES, if available (e.g., for length, width, or depth findings). The unit of the original result should be mapped to a synonymous unit on the Controlled Terminology list.","Exp"
"SENDIG v3.1.1","11","Findings","PM","PMSTRESC","Standardized Result in Character Format","Char","","",,"","Result Qualifier","Contains the result value for all findings, copied, or derived from PMORRES in a standard format or standard units. PMSTRESC should store all results or findings (without location of finding) in character format; if results are numeric, they should also be submitted in numeric format in PMSTRESN.","Exp"
"SENDIG v3.1.1","12","Findings","PM","PMSTRESN","Standardized Result in Numeric Format","Num","","",,"","Result Qualifier","Used for numeric results or findings in standard format; contains the numeric form of PMSTRESC. PMSTRESN should store all numeric test results or findings.","Exp"
"SENDIG v3.1.1","13","Findings","PM","PMSTRESU","Unit of the Standardized Result","Char","C71620","UNIT",,"","Variable Qualifier","Standardized unit used for PMSTRESC and PMSTRESN.","Exp"
"SENDIG v3.1.1","14","Findings","PM","PMSTAT","Completion Status","Char","C66789","ND",,"","Record Qualifier","Used to indicate when a test is not done or result is missing. Should be null if a result exists in PMORRES.","Perm"
"SENDIG v3.1.1","15","Findings","PM","PMREASND","Reason Not Done","Char","","",,"","Record Qualifier","Describes why PMSTAT is NOT DONE, such as MEASUREMENT IMPOSSIBLE DUE TO EXCESSIVE ULCERATION OF MASS.","Perm"
"SENDIG v3.1.1","16","Findings","PM","PMLOC","Location of a Finding","Char","","",,"","Record Qualifier","Specifies the location of the palpable mass finding. Example: LEFT SHOULDER.","Exp"
"SENDIG v3.1.1","17","Findings","PM","PMEVAL","Evaluator","Char","","",,"","Record Qualifier","Role of the person who provided the evaluation. Example: TECHNICIAN.","Perm"
"SENDIG v3.1.1","18","Findings","PM","PMUSCHFL","Unscheduled Flag","Char","C66742","NY",,"","Record Qualifier","Indicates whether the timing of a performed test or observation was unscheduled. If a test or observation was performed based upon a schedule defined in the protocol, this flag should be null. Expected values are ""Y"" or null.","Perm"
"SENDIG v3.1.1","19","Findings","PM","VISITDY","Planned Study Day of Collection","Num","","",,"","Timing","Planned study day of collection. Should be an integer.","Perm"
"SENDIG v3.1.1","20","Findings","PM","PMDTC","Date/Time of Observation","Char","","","ISO 8601","","Timing","Date/Time of the observation in ISO 8601 format.","Exp"
"SENDIG v3.1.1","21","Findings","PM","PMDY","Study Day of Observation","Num","","",,"","Timing","Study day of the observation, measured as integer days. The algorithm for calculations must be relative to the sponsor-defined RFSTDTC variable in the Demographics (DM) domain.","Perm"
"SENDIG v3.1.1","22","Findings","PM","PMNOMDY","Nominal Study Day for Tabulations","Num","","",,"","Timing","Nominal study day used for grouping records for observations that may occur on different days into a single reported study day. Should be an integer.","Exp"
"SENDIG v3.1.1","23","Findings","PM","PMNOMLBL","Label for Nominal Study Day","Char","","",,"","Timing","A label for a given value of PMNOMDY as presented in the study report. Examples: ""Week 4,"" ""Day 28,"" ""Terminal Sac"".","Perm"
"SENDIG v3.1.1","1","Findings","PC","STUDYID","Study Identifier","Char","","",,"","Identifier","Unique identifier for a study.","Req"
"SENDIG v3.1.1","2","Findings","PC","DOMAIN","Domain Abbreviation","Char","","",,"PC","Identifier","Two-character abbreviation for the domain.","Req"
"SENDIG v3.1.1","3","Findings","PC","USUBJID","Unique Subject Identifier","Char","","",,"","Identifier","Identifier used to uniquely identify a subject across all studies for all applications or submissions involving the product. Either USUBJID or POOLID must be populated.","Exp"
"SENDIG v3.1.1","4","Findings","PC","POOLID","Pool Identifier","Char","","",,"","Identifier","Identifier used for pooling subjects to assign a single finding to multiple subjects. If POOLID is entered, POOLDEF records must exist for each subject and the USUBJID must be null. Either USUBJID or POOLID must be populated.","Perm"
"SENDIG v3.1.1","5","Findings","PC","PCSEQ","Sequence Number","Num","","",,"","Identifier","The sequence number must be unique for each record within a USUBJID or POOLID, whichever applies for the record.","Req"
"SENDIG v3.1.1","6","Findings","PC","PCGRPID","Group Identifier","Char","","",,"","Identifier","Used to tie together a block of related records in a single domain for a subject or pool. This is not the treatment group number.","Perm"
"SENDIG v3.1.1","7","Findings","PC","PCREFID","Sample Identifier","Char","","",,"","Identifier","Internal or external specimen identifier. Example: 1009570101.","Perm"
"SENDIG v3.1.1","8","Findings","PC","PCSPID","Sponsor-Defined Identifier","Char","","",,"","Identifier","Sponsor-defined reference identifier.","Perm"
"SENDIG v3.1.1","9","Findings","PC","PCTESTCD","Test Short Name","Char","","",,"","Topic","Short name of the analyte (or measurement) described in PCTEST. It can be used as a column name when converting a dataset from a vertical to a horizontal format. The value in PCTESTCD cannot be longer than 8 characters, nor can it start with a number (e.g., ""1TEST"" is not valid). PCTESTCD cannot contain characters other than letters, numbers, or underscores.","Req"
"SENDIG v3.1.1","10","Findings","PC","PCTEST","Test Name","Char","","",,"","Synonym Qualifier","Long name for PCTESTCD, such as the name of the analyte (or measurement). The value in PCTEST cannot be longer than 40 characters.","Req"
"SENDIG v3.1.1","11","Findings","PC","PCCAT","Test Category","Char","","",,"","Grouping Qualifier","Used to define a category of the pharmacokinetic test performed. Examples: ANALYTE, METABOLITE, SPECIMEN PROPERTY.","Perm"
"SENDIG v3.1.1","12","Findings","PC","PCSCAT","Test Subcategory","Char","","",,"","Grouping Qualifier","A further categorization of a test category.","Perm"
"SENDIG v3.1.1","13","Findings","PC","PCORRES","Result or Findings as Collected","Char","","",,"","Result Qualifier","Result of the measurement or finding as originally received or collected.","Exp"
"SENDIG v3.1.1","14","Findings","PC","PCORRESU","Unit of the Original Result","Char","C85494","PKUNIT",,"","Variable Qualifier","The unit for the original result. The unit of the original result should be mapped to a synonymous unit on the Controlled Terminology (http://www.cdisc.org/terminology) list.","Exp"
"SENDIG v3.1.1","15","Findings","PC","PCSTRESC","Standardized Result in Character Format","Char","","",,"","Result Qualifier","Contains the result value for all findings, copied or derived from PCORRES in a standard format or standard units. PCSTRESC should store all results or findings in character format; if results are numeric, they should also be submitted in numeric format in PCSTRESN. Results beyond limits of quantitation should be represented with the term ""BLQ"" for results below the limit and ""ALQ"" for results above the limit.","Exp"
"SENDIG v3.1.1","16","Findings","PC","PCSTRESN","Standardized Result in Numeric Format","Num","","",,"","Result Qualifier","Used for numeric results or findings in standard format; contains the numeric form of PCSTRESC. PCSTRESN should store all numeric test results or findings. For results beyond limits of quantitation, this variable should be left null (e.g., if PCSTRESC is ""BLQ"", PCSTRESN would be null).","Exp"
"SENDIG v3.1.1","17","Findings","PC","PCSTRESU","Unit of the Standardized Result","Char","C85494","PKUNIT",,"","Variable Qualifier","Standardized unit used for PCSTRESC and PCSTRESN.","Exp"
"SENDIG v3.1.1","18","Findings","PC","PCSTAT","Completion Status","Char","C66789","ND",,"","Record Qualifier","Used to indicate when a test is not done or result is missing. Should be null if a result exists in PCORRES.","Perm"
"SENDIG v3.1.1","19","Findings","PC","PCREASND","Reason Not Done","Char","","",,"","Record Qualifier","Describes why PCSTAT is NOT DONE, such as SPECIMEN LOST.","Perm"
"SENDIG v3.1.1","20","Findings","PC","PCNAM","Laboratory Name","Char","","",,"","Record Qualifier","Name or identifier of the laboratory or vendor providing the test results.","Perm"
"SENDIG v3.1.1","21","Findings","PC","PCSPEC","Specimen Material Type","Char","C77529","SPEC",,"","Record Qualifier","Defines the type of specimen used for a measurement. Examples: SERUM, PLASMA, URINE.","Req"
"SENDIG v3.1.1","22","Findings","PC","PCSPCCND","Specimen Condition","Char","","",,"","Record Qualifier","Free or standardized text describing the condition of the specimen. Examples: HEMOLYZED, ICTERIC, LIPEMIC.","Perm"
"SENDIG v3.1.1","23","Findings","PC","PCSPCUFL","Specimen Usability for the Test","Char","C66742","NY",,"","Record Qualifier","Describes the usability of the specimen for the test. Should be ""N"" if the specimen is not usable; otherwise it should be null.","Perm"
"SENDIG v3.1.1","24","Findings","PC","PCMETHOD","Method of Test or Examination","Char","","",,"","Record Qualifier","Method of the test or examination. Examples: HPLC/MS, ELISA. This should contain sufficient information and granularity to allow differentiation of various methods that might have been used within a study.","Perm"
"SENDIG v3.1.1","25","Findings","PC","PCBLFL","Baseline Flag","Char","C66742","NY",,"","Record Qualifier","A baseline indicator may be used to calculate differences or changes from baseline. Value should be ""Y"" or null. The baseline flag is sponsor-defined.","Perm"
"SENDIG v3.1.1","26","Findings","PC","PCFAST","Fasting Status","Char","C66742","NY",,"","Record Qualifier","Indicator used to identify fasting status. The value should be ""Y"" or null.","Perm"
"SENDIG v3.1.1","27","Findings","PC","PCDRVFL","Derived Flag","Char","C66742","NY",,"","Record Qualifier","Used to indicate a derived record. The value should be ""Y"" or null. Records that represent the average of other records are examples of records that would be derived for the submission datasets.","Perm"
"SENDIG v3.1.1","28","Findings","PC","PCLLOQ","Lower Limit of Quantitation","Num","","",,"","Variable Qualifier","Indicates the lower limit of quantitation for an assay. Units should be those used in PCSTRESU.","Exp"
"SENDIG v3.1.1","29","Findings","PC","PCEXCLFL","Exclusion Flag","Char","C66742","NY",,"","Record Qualifier","""Y"" if the result should be excluded from all calculations, otherwise null.","Perm"
"SENDIG v3.1.1","30","Findings","PC","PCREASEX","Reason for Exclusion","Char","","",,"","Record Qualifier","The reason the result should be excluded from all calculations. Used only when PCEXCLFL is ""Y"".","Perm"
"SENDIG v3.1.1","31","Findings","PC","PCUSCHFL","Unscheduled Flag","Char","C66742","NY",,"","Record Qualifier","Indicates whether the timing of the specimen collection was unscheduled. If a specimen collection was performed based upon a schedule defined in the protocol, this flag should be null. Expected values are ""Y"" or null.","Perm"
"SENDIG v3.1.1","32","Findings","PC","VISITDY","Planned Study Day of Collection","Num","","",,"","Timing","Planned day of collection. Should be an integer.","Perm"
"SENDIG v3.1.1","33","Findings","PC","PCDTC","Date/Time of Specimen Collection","Char","","","ISO 8601","","Timing","Date/Time of specimen collection, in ISO 8601 format. If there is no end time, this will be the collection time.","Perm"
"SENDIG v3.1.1","34","Findings","PC","PCENDTC","End Date/Time of Specimen Collection","Char","","","ISO 8601","","Timing","End date/time of specimen collection, in ISO 8601 format. If there is no end time, the collection time should be represented in PCDTC, and PCENDTC should be null.","Perm"
"SENDIG v3.1.1","35","Findings","PC","PCDY","Study Day of Specimen Collection","Num","","",,"","Timing","Study day of specimen collection, in integer days. The algorithm for calculations must be relative to the sponsor-defined RFSTDTC variable in Demographics (DM) domain.","Perm"
"SENDIG v3.1.1","36","Findings","PC","PCENDY","Study Day of End of Specimen Collection","Num","","",,"","Timing","Study day of the end of specimen collection, in integer days. The algorithm for calculations must be relative to the sponsor-defined RFSTDTC variable in DM domain.","Perm"
"SENDIG v3.1.1","37","Findings","PC","PCNOMDY","Nominal Study Day for Tabulations","Num","","",,"","Timing","Nominal study day used for grouping records for specimen collections that may occur on different days into a single reported study day. Should be an integer.","Exp"
"SENDIG v3.1.1","38","Findings","PC","PCNOMLBL","Label for Nominal Study Day","Char","","",,"","Timing","A label for a given value of PCNOMDY as presented in the study report. Examples: ""Week 4"", ""Day 28"".","Perm"
"SENDIG v3.1.1","39","Findings","PC","PCTPT","Planned Time Point Name","Char","","",,"","Timing","Text description of time when specimen should be taken. \n Note: This may be represented as an elapsed time relative to a fixed reference point, such as time of last dose. See PCTPTNUM and PCTPTREF. Examples: Start, 5 min post.","Perm"
"SENDIG v3.1.1","40","Findings","PC","PCTPTNUM","Planned Time Point Number","Num","","",,"","Timing","Numerical version of PCTPT to aid in sorting.","Perm"
"SENDIG v3.1.1","41","Findings","PC","PCELTM","Planned Elapsed Time from Time Point Ref","Char","","","ISO 8601","","Timing","Planned elapsed time (in ISO 8601 format) relative to a planned fixed reference (PCTPTREF) such as ""Day 1, Dose 1"". This variable is useful where there are repetitive measures. Not a clock time or a date time variable. Represented as an ISO 8601 duration. Examples: ""PT0H"" to represent any predose values; ""PT8H"" to represent the period of 8 hours after the reference point indicated by PCTPTREF.","Exp"
"SENDIG v3.1.1","42","Findings","PC","PCTPTREF","Time Point Reference","Char","","",,"","Timing","Name of the fixed reference point referred to by PCELTM, if used for PCTPTNUM, and PCTPT. It is recommended that PCTPTREF be as descriptive as possible so the reference time point can be inferred without looking at other variables. Example: ""Day 1, Dose 1"".","Exp"
"SENDIG v3.1.1","43","Findings","PC","PCRFTDTC","Date/Time of Reference Point","Char","","","ISO 8601","","Timing","Date/Time of the reference time point, PCTPTREF.","Exp"
"SENDIG v3.1.1","44","Findings","PC","PCEVLINT","Evaluation Interval","Char","","","ISO 8601","","Timing","Planned evaluation interval associated with a PCTEST record in ISO 8601 format. Example: ""-P2H"" to represent a planned interval of collection of 2 hours prior to the time point described in PCTPT.","Perm"
"SENDIG v3.1.1","1","Findings","PP","STUDYID","Study Identifier","Char","","",,"","Identifier","Unique identifier for a study.","Req"
"SENDIG v3.1.1","2","Findings","PP","DOMAIN","Domain Abbreviation","Char","","",,"PP","Identifier","Two-character abbreviation for the domain.","Req"
"SENDIG v3.1.1","3","Findings","PP","USUBJID","Unique Subject Identifier","Char","","",,"","Identifier","Identifier used to uniquely identify a subject across all studies for all applications or submissions involving the product. Either USUBJID or POOLID must be populated.","Exp"
"SENDIG v3.1.1","4","Findings","PP","POOLID","Pool Identifier","Char","","",,"","Identifier","Identifier used for pooling subjects to assign a single finding to multiple subjects. If POOLID is entered, POOLDEF records must exist for each subject and the USUBJID must be null. Either USUBJID or POOLID must be populated.","Perm"
"SENDIG v3.1.1","5","Findings","PP","PPSEQ","Sequence Number","Num","","",,"","Identifier","The sequence number must be unique for each record within a USUBJID or POOLID, whichever applies for the record.","Req"
"SENDIG v3.1.1","6","Findings","PP","PPGRPID","Group Identifier","Char","","",,"","Identifier","Used to tie together a block of related records in a single domain for a subject or pool. This is not the treatment group number.","Perm"
"SENDIG v3.1.1","7","Findings","PP","PPTESTCD","Parameter Short Name","Char","C85839","PKPARMCD",,"","Topic","Short name of the measurement, test, or examination described in PPTEST. It can be used as a column name when converting a dataset from a vertical to a horizontal format. The value in PPTESTCD cannot be longer than 8 characters, nor can it start with a number (e.g., ""1TEST"" is not valid). PPTESTCD cannot contain characters other than letters, numbers, or underscores. Examples: AUCINT, TMAX, CMAX.","Req"
"SENDIG v3.1.1","8","Findings","PP","PPTEST","Parameter Name","Char","C85493","PKPARM",,"","Synonym Qualifier","Long name for PPTESTCD. The value in PPTEST cannot be longer than 40 characters. Examples: AUC from T1 to T2, Time of CMAX, Max Conc.","Req"
"SENDIG v3.1.1","9","Findings","PP","PPCAT","Parameter Category","Char","","",,"","Grouping Qualifier","Used to define a category of parameters associated with a specific analyte. This must be the analyte in PCTEST whose profile the parameter is associated with.","Exp"
"SENDIG v3.1.1","10","Findings","PP","PPSCAT","Parameter Subcategory","Char","","",,"","Grouping Qualifier","Categorization of the model type used to calculate the pharmacokinetic parameters. Examples include COMPARTMENTAL, NON-COMPARTMENTAL.","Perm"
"SENDIG v3.1.1","11","Findings","PP","PPORRES","Result or Findings as Collected","Char","","",,"","Result Qualifier","Result of the measurement or finding as calculated.","Exp"
"SENDIG v3.1.1","12","Findings","PP","PPORRESU","Unit of the Original Result","Char","C85494","PKUNIT",,"","Variable Qualifier","The unit for the original result. The unit of the original result should be mapped to a synonymous unit on the CDISC Controlled Terminology (http://www.cdisc.org/terminology) list.","Exp"
"SENDIG v3.1.1","13","Findings","PP","PPSTRESC","Standardized Result in Character Format","Char","","",,"","Result Qualifier","Contains the result value for all findings, copied or derived from PPORRES in a standard format or standard units. PPSTRESC should store all results or findings in character format; if results are numeric, they should also be stored in numeric format in PPSTRESN. For example, if a test has results NONE, NEG, and NEGATIVE in PPORRES and these results effectively have the same meaning, they could be represented in standard format in PPSTRESC as NEGATIVE. For other examples, see general assumptions.","Exp"
"SENDIG v3.1.1","14","Findings","PP","PPSTRESN","Standardized Result in Numeric Format","Num","","",,"","Result Qualifier","Used for numeric results or findings in standard format; contains the numeric form of PPSTRESC. PPSTRESN should store all numeric test results or findings.","Exp"
"SENDIG v3.1.1","15","Findings","PP","PPSTRESU","Unit of the Standardized Result","Char","C85494","PKUNIT",,"","Variable Qualifier","Standardized unit used for PPSTRESC and PPSTRESN.","Exp"
"SENDIG v3.1.1","16","Findings","PP","PPSTAT","Completion Status","Char","C66789","ND",,"","Record Qualifier","Used to indicate that a parameter was not calculated. Should be null if a result exists in PPORRES.","Perm"
"SENDIG v3.1.1","17","Findings","PP","PPREASND","Reason Not Done","Char","","",,"","Record Qualifier","Describes why a parameter was not performed, such as INSUFFICIENT DATA. Used in conjunction with PPSTAT when value is NOT DONE.","Perm"
"SENDIG v3.1.1","18","Findings","PP","PPSPEC","Specimen Material Type","Char","C77529","SPEC",,"","Record Qualifier","Defines the type of specimen used for a measurement. Examples: SERUM, PLASMA, URINE. \n If multiple specimen types are used for a calculation (e.g., serum and urine for creatinine clearance), refer to Section 4.3.6.2 for guidance on how to populate.","Exp"
"SENDIG v3.1.1","19","Findings","PP","VISITDY","Planned Study Day of Collection","Num","","",,"","Timing","Planned study day of collection. Should be an integer.","Perm"
"SENDIG v3.1.1","20","Findings","PP","PPNOMDY","Nominal Study Day for Tabulations","Num","","",,"","Timing","Nominal study day used for grouping records for specimen collections that may occur on different days into a single reported study day. Should be an integer.","Exp"
"SENDIG v3.1.1","21","Findings","PP","PPNOMLBL","Label for Nominal Study Day","Char","","",,"","Timing","A label for a given value of PPNOMDY as presented in the study report. Examples: ""Week 4"", ""Day 28"".","Perm"
"SENDIG v3.1.1","22","Findings","PP","PPTPTREF","Time Point Reference","Char","","",,"","Timing","Name of the fixed reference point used as a basis for PPRFTDTC.","Exp"
"SENDIG v3.1.1","23","Findings","PP","PPRFTDTC","Date/Time of Reference Point","Char","","","ISO 8601","","Timing","Date/Time of the reference time point, PPTPTREF. The values in PPRFTDTC should be the same as that in PCRFTDTC for related records.","Exp"
"SENDIG v3.1.1","24","Findings","PP","PPSTINT","Start of Assessment Interval","Char","","","ISO 8601","","Timing","Start of the assessment interval relative to Time Point Reference (PPTPTREF) in ISO 8601 duration format. Example: When the area under the curve is calculated from 12 to 24 hours (PPTESTCD=AUCT1T2), the value would be PT12H.","Perm"
"SENDIG v3.1.1","25","Findings","PP","PPENINT","End of Assessment Interval","Char","","","ISO 8601","","Timing","End of the assessment interval relative to Time Point Reference (PPTPTREF) in ISO 8601 duration format. Example: When the area under the curve is calculated from 12 to 24 hours (PPTESTCD=AUCT1T2), the value would be PT24H.","Perm"
"SENDIG v3.1.1","1","Findings","SC","STUDYID","Study Identifier","Char","","",,"","Identifier","Unique identifier for a study.","Req"
"SENDIG v3.1.1","2","Findings","SC","DOMAIN","Domain Abbreviation","Char","","",,"SC","Identifier","Two-character abbreviation for the domain.","Req"
"SENDIG v3.1.1","3","Findings","SC","USUBJID","Unique Subject Identifier","Char","","",,"","Identifier","Identifier used to uniquely identify a subject across a study for all applications or submissions involving the product.","Req"
"SENDIG v3.1.1","4","Findings","SC","SCSEQ","Sequence Number","Num","","",,"","Identifier","Sequence number given to ensure uniqueness of subject records within a domain. May be any valid number.","Req"
"SENDIG v3.1.1","5","Findings","SC","SCGRPID","Group Identifier","Char","","",,"","Identifier","Used to tie together a block of related records in a single domain for a subject. This is not the treatment group number.","Perm"
"SENDIG v3.1.1","6","Findings","SC","SCTESTCD","Subject Characteristic Short Name","Char","C89981","SBCCDSND",,"","Topic","Short name of the measurement, test, or examination described in SCTEST. It can be used as a column name when converting a dataset from a vertical to a horizontal format. The value in SCTESTCD cannot be longer than 8 characters, nor can it start with a number (e.g., ""1TEST"" is not valid). SCTESTCD cannot contain characters other than letters, numbers, or underscores. Some extensible controlled values are: SPLRNAM, SPLRLOC, HAIRCOLR.","Req"
"SENDIG v3.1.1","7","Findings","SC","SCTEST","Subject Characteristic","Char","C89980","SBCSND",,"","Synonym Qualifier","Long name for SCTESTCD. The value in SCTEST cannot be longer than 40 characters. Examples: Test Subject Supplier, Test Subject Supplier Site, and Hair Coat Color.","Req"
"SENDIG v3.1.1","8","Findings","SC","SCORRES","Result or Findings as Collected","Char","","",,"","Result Qualifier","Result of the subject characteristic as originally received or collected.","Exp"
"SENDIG v3.1.1","9","Findings","SC","SCORRESU","Unit of the Original Result","Char","C71620","UNIT",,"","Variable Qualifier","The unit for the original result. The unit of the original result should be mapped to a synonymous unit on the Controlled Terminology (http://www.cdisc.org/terminology) list.","Perm"
"SENDIG v3.1.1","10","Findings","SC","SCSTRESC","Standardized Result in Character Format","Char","","",,"","Result Qualifier","Contains the result value for all findings, copied or derived from SCORRES in a standard format or standard units. SCSTRESC should store all results or findings in character format; if results are numeric, they should also be stored in numeric format in SCSTRESN. For example, if a test has results NONE, NEG, and NEGATIVE in SCORRES, these results effectively have the same meaning. In this case, they could be represented in standard format in SCSTRESC with a single term NEGATIVE.","Exp"
"SENDIG v3.1.1","11","Findings","SC","SCSTRESN","Standardized Result in Numeric Format","Num","","",,"","Result Qualifier","Used for numeric results or findings in standard format; contains the numeric form of SCSTRESC. SCSTRESN should store all numeric test results or findings.","Perm"
"SENDIG v3.1.1","12","Findings","SC","SCSTRESU","Unit of the Standardized Result","Char","C71620","UNIT",,"","Variable Qualifier","Standardized unit used for SCSTRESC and SCSTRESN.","Perm"
"SENDIG v3.1.1","13","Findings","SC","SCDTC","Date/Time of Collection","Char","","","ISO 8601","","Timing","Date/Time of collection of the subject characteristic information, in ISO 8601 format.","Perm"
"SENDIG v3.1.1","14","Findings","SC","SCDY","Study Day of Collection","Num","","",,"","Timing","Study day of collection, in integer days. The algorithm for calculations must be relative to the sponsor-defined RFSTDTC variable in the Demographics (DM) domain.","Perm"
"SENDIG v3.1.1","1","Findings","TF","STUDYID","Study Identifier","Char","","",,"","Identifier","Unique identifier for a study.","Req"
"SENDIG v3.1.1","2","Findings","TF","DOMAIN","Domain Abbreviation","Char","","",,"TF","Identifier","Two-character abbreviation for the domain.","Req"
"SENDIG v3.1.1","3","Findings","TF","USUBJID","Unique Subject Identifier","Char","","",,"","Identifier","Identifier used to uniquely identify a subject across all studies for all applications or submissions involving the product within the submission","Req"
"SENDIG v3.1.1","4","Findings","TF","TFSEQ","Sequence Number","Num","","",,"","Identifier","Sequence number given to ensure uniqueness of subject records within a domain. May be any valid number.","Req"
"SENDIG v3.1.1","5","Findings","TF","TFGRPID","Group Identifier","Char","","",,"","Identifier","Used to tie together a block of related records in a single domain for a subject. This is not the treatment group number.","Perm"
"SENDIG v3.1.1","6","Findings","TF","TFREFID","Specimen Identifier","Char","","",,"","Identifier","Internal or external specimen identifier. Example: Specimen barcode number.","Perm"
"SENDIG v3.1.1","7","Findings","TF","TFSPID","Mass Identifier","Char","","",,"","Identifier","Mass identifier such as MASS 1 or MASS A. Used when the mass was discovered during the in-life phase or during pathology and was assigned a mass identifier. The mass identification should be unique within the subject, regardless of mass location.","Exp"
"SENDIG v3.1.1","8","Findings","TF","TFTESTCD","Tumor Examination Short Name","Char","C90006","TFTESTCD",,"","Topic","Short name of the measurement, test, or examination described in TFTEST. It can be used as a column name when converting a dataset from a vertical to a horizontal format. The value in TFTESTCD cannot be longer than 8 characters, nor can it start with a number (e.g., ""1TEST"" is not valid). TFTESTCD cannot contain characters other than letters, numbers, or underscores. Example: TUMEX.","Req"
"SENDIG v3.1.1","9","Findings","TF","TFTEST","Tumor Examination Name","Char","C90005","TFTEST",,"","Synonym Qualifier","Long name for TFTESTCD. The value in TFTEST cannot be longer than 40 characters. Example: Tumor Examination.","Req"
"SENDIG v3.1.1","10","Findings","TF","TFORRES","Result or Findings as Collected","Char","","",,"","Result Qualifier","Result of the histopathological examination as originally received or collected.","Exp"
"SENDIG v3.1.1","11","Findings","TF","TFSTRESC","Standardized Result in Character Format","Char","C88025","NEOPLASM",,"","Result Qualifier","Contains the tumor name mapped from TFORRES into a standard format from the controlled terms list.","Exp"
"SENDIG v3.1.1","12","Findings","TF","TFRESCAT","Tumor Malignancy Status","Char","C90004","NEOSTAT",,"","Variable Qualifier","Used to record the malignancy of the tumor as determined by the pathologist. It may be copied or derived from a description in TFORRES. Examples: BENIGN, MALIGNANT, METASTATIC, and UNDETERMINED.","Req"
"SENDIG v3.1.1","13","Findings","TF","TFNAM","Laboratory Name","Char","","",,"","Record Qualifier","Name or identifier of the laboratory or vendor that provided the test results.","Perm"
"SENDIG v3.1.1","14","Findings","TF","TFSPEC","Specimen Material Type","Char","C77529","SPEC",,"","Record Qualifier","Defines the type of tissue, organ, or fluid specimen examined. Examples: LIVER, HEART.","Req"
"SENDIG v3.1.1","15","Findings","TF","TFANTREG","Anatomical Region of Specimen","Char","","",,"","Variable Qualifier","Defines the specific anatomical or biological region of a tissue, organ specimen, or the region from which the specimen was obtained, such as a section or part of what is defined in the TFSPEC variable. If the anatomical region is not included in the specimen description TFSPEC, it may be included in this variable. This field can be a combination of terms where needed. This field can be null if not applicable. Examples: CORTEX, MEDULLA, MUCOSA, SEROSA, ISLET, ZONA FASICULATA, ZONA RETICULARIS, CRANIAL, MEDIAN, ACCESSORY, SPINAL, LUMBAR, FRONTAL.","Perm"
"SENDIG v3.1.1","16","Findings","TF","TFSPCCND","Specimen Condition","Char","","",,"","Record Qualifier","Free or standardized text describing the condition of the specimen. Example: AUTOLYZED.","Perm"
"SENDIG v3.1.1","17","Findings","TF","TFLAT","Specimen Laterality within Subject","Char","C99073","LAT",,"","Variable Qualifier","Qualifier for laterality of the specimen within the subject for paired specimens. Examples: LEFT, RIGHT, BILATERAL.","Perm"
"SENDIG v3.1.1","18","Findings","TF","TFDIR","Specimen Directionality within Subject","Char","C99074","DIR",,"","Variable Qualifier","Qualifier for directionality of the specimen within the subject. Examples: DORSAL, PROXIMAL.","Perm"
"SENDIG v3.1.1","19","Findings","TF","TFMETHOD","Method of Test or Examination","Char","","",,"","Record Qualifier","Method of the test or examination. This could be different types of staining used for the slides. Example: H&E.","Perm"
"SENDIG v3.1.1","20","Findings","TF","TFEVAL","Evaluator","Char","","",,"","Record Qualifier","Role of the person who provided the evaluation. Example: TOX PATHOLOGIST, PEER REVIEW, SPONSOR PATHOLOGIST.","Perm"
"SENDIG v3.1.1","21","Findings","TF","TFDTHREL","Relationship to Death","Char","C66742","NY",,"","Record Qualifier","Describes the relationship of a particular finding to the death of a subject. Example: Y if the tumor was the cause of death, N if the tumor was not the cause of death, or U for Unknown. Null cannot be used because the variable is required.","Req"
"SENDIG v3.1.1","22","Findings","TF","TFDTC","Date/Time","Char","","","ISO 8601","","Timing","For a specimen collected or observed post mortem, this is the date/time of subject disposition, in ISO 8601 format.","Perm"
"SENDIG v3.1.1","23","Findings","TF","TFDY","Study Day","Num","","",,"","Timing","For a specimen collected or observed post mortem, this is the study day of subject disposition, in integer days. The algorithm for calculations must be relative to the sponsor-defined RFSTDTC variable in the Demographics (DM) domain.","Perm"
"SENDIG v3.1.1","24","Findings","TF","TFDETECT","Time in Days to Detection of Tumor","Num","","",,"","Timing","The number of days from the start of dosing to the earliest detection of the tumor in the experimental phase. This variable must be populated for every tumor discovered during the experimental phase.","Req"
"SENDIG v3.1.1","1","Findings","VS","STUDYID","Study Identifier","Char","","",,"","Identifier","Unique identifier for a study.","Req"
"SENDIG v3.1.1","2","Findings","VS","DOMAIN","Domain Abbreviation","Char","","",,"VS","Identifier","Two-character abbreviation for the domain.","Req"
"SENDIG v3.1.1","3","Findings","VS","USUBJID","Unique Subject Identifier","Char","","",,"","Identifier","Identifier used to uniquely identify a subject across all studies for all applications or submissions involving the product.","Req"
"SENDIG v3.1.1","4","Findings","VS","VSSEQ","Sequence Number","Num","","",,"","Identifier","Sequence number given to ensure uniqueness of subject records within a domain. May be any valid number.","Req"
"SENDIG v3.1.1","5","Findings","VS","VSGRPID","Group Identifier","Char","","",,"","Identifier","Used to tie together a block of related records in a single domain for a subject. This is not the treatment group number.","Perm"
"SENDIG v3.1.1","6","Findings","VS","VSSPID","Sponsor-Defined Identifier","Char","","",,"","Identifier","Sponsor-defined reference identifier","Perm"
"SENDIG v3.1.1","7","Findings","VS","VSTESTCD","Vital Signs Test Short Name","Char","C120536","SVSTSTCD",,"","Topic","Short name of the measurement described in VSTEST. It can be used as a column name when converting a dataset from a vertical to a horizontal format. The value in VSTESTCD cannot be longer than 8 characters, nor can it start with a number (e.g., ""1TEST"" is not valid). VSTESTCD cannot contain characters other than letters, numbers, or underscores.","Req"
"SENDIG v3.1.1","8","Findings","VS","VSTEST","Vital Signs Test Name","Char","C120537","SVSTST",,"","Synonym Qualifier","Long name for VSTESTCD. The value in VSTEST cannot be longer than 40 characters.","Req"
"SENDIG v3.1.1","9","Findings","VS","VSCAT","Category for Vital Signs","Char","","",,"","Grouping Qualifier","Used to define a category of the vital signs measurement performed.","Perm"
"SENDIG v3.1.1","10","Findings","VS","VSSCAT","Subcategory for Vital Signs","Char","","",,"","Grouping Qualifier","A further categorization of the vital signs measurement performed.","Perm"
"SENDIG v3.1.1","11","Findings","VS","VSPOS","Vital Signs Position of Subject","Char","C71148","POSITION",,"","Record Qualifier","Position of the subject during the measurement. If the subject is restrained, populate with the position (example SITTING or STANDING).","Perm"
"SENDIG v3.1.1","12","Findings","VS","VSORRES","Result or Findings as Collected","Char","","",,"","Result Qualifier","Result of the vital signs measurement as originally received or collected.","Exp"
"SENDIG v3.1.1","13","Findings","VS","VSORRESU","Unit of the Original Result","Char","C71620","UNIT",,"","Variable Qualifier","The unit for the original result. The unit of the original result should be mapped to a synonymous unit on the Controlled Terminology (http://www.cdisc.org/terminology) list.","Exp"
"SENDIG v3.1.1","14","Findings","VS","VSSTRESC","Standardized Result in Character Format","Char","","",,"","Result Qualifier","Contains the result value for all findings, copied or derived from VSORRES in a standard format or standard units. VSSTRESC should store all results in character format; if results are numeric, they should also be submited in numeric format in VSSTRESN.","Exp"
"SENDIG v3.1.1","15","Findings","VS","VSSTRESN","Standardized Result in Numeric Format","Num","","",,"","Result Qualifier","Used for numeric results or findings in standard format; contains the numeric form of VSSTRESC. VSSTRESN should store all numeric test results or findings.","Exp"
"SENDIG v3.1.1","16","Findings","VS","VSSTRESU","Unit of the Standardized Result","Char","C71620","UNIT",,"","Variable Qualifier","Standardized unit used for VSSTRESC and VSSTRESN.","Exp"
"SENDIG v3.1.1","17","Findings","VS","VSSTAT","Completion Status","Char","C66789","ND",,"","Record Qualifier","Used to indicate when a test is not done or result is missing. Should be null if a result exists in VSORRES.","Perm"
"SENDIG v3.1.1","18","Findings","VS","VSREASND","Reason Not Done","Char","","",,"","Record Qualifier","Describes why VSSTAT is NOT DONE, such as BROKEN EQUIPMENT.","Perm"
"SENDIG v3.1.1","19","Findings","VS","VSLOC","Location of Vital Signs Measurement","Char","","",,"","Record Qualifier","Location relevant to the collection of the vital signs measurement. Example: RECTAL for Temperature.","Perm"
"SENDIG v3.1.1","20","Findings","VS","VSCSTATE","Consciousness State","Char","C90018","CSTATE",,"","Record Qualifier","Consciousness state of the subject at the time of measurement. Examples: CONSCIOUS, SEMI-CONSCIOUS, UNCONSCIOUS.","Perm"
"SENDIG v3.1.1","21","Findings","VS","VSBLFL","Baseline Flag","Char","C66742","NY",,"","Record Qualifier","A baseline indicator may be used to calculate differences or changes from baseline. Value should be Y or null. The baseline flag is sponsor defined.","Exp"
"SENDIG v3.1.1","22","Findings","VS","VSDRVFL","Derived Flag","Char","C66742","NY",,"","Record Qualifier","Used to indicate a derived record. The value should be Y or null.","Perm"
"SENDIG v3.1.1","23","Findings","VS","VSEXCLFL","Exclusion Flag","Char","C66742","NY",,"","Record Qualifier","Y if the result should be excluded from all calculations, otherwise null.","Perm"
"SENDIG v3.1.1","24","Findings","VS","VSREASEX","Reason for Exclusion","Char","","",,"","Record Qualifier","The reason the result should be excluded from all calculations. Used only when VSEXCLFL is Y.","Perm"
"SENDIG v3.1.1","25","Findings","VS","VSUSCHFL","Unscheduled Flag","Char","C66742","NY",,"","Record Qualifier","Indicates whether the timing of the performed test or observation was unscheduled. If a test or observation was performed based upon a schedule defined in the protocol, this flag should be null. Expected values are Y or null.","Perm"
"SENDIG v3.1.1","26","Findings","VS","VISITDY","Planned Study Day of Collection","Num","","",,"","Timing","Planned day of the vital signs measurement. Should be an integer.","Perm"
"SENDIG v3.1.1","27","Findings","VS","VSDTC","Date/Time of Measurement","Char","","","ISO 8601","","Timing","Date/Time of the vital sign measurement, in ISO 8601 format. For indicating measurement over a period, DTC should be populated with the start date/time of collection.","Exp"
"SENDIG v3.1.1","28","Findings","VS","VSENDTC","End Date/Time of Measurement","Char","","","ISO 8601","","Timing","Date/Time of the end of the vital sign measurement, in ISO 8601 format. Should be populated for continuous period only.","Perm"
"SENDIG v3.1.1","29","Findings","VS","VSDY","Study Day of Vital Signs Measurement","Num","","",,"","Timing","Study day of vital signs measurements, in integer days. For indicating measurement over a continuous period, VSDY can be used to indicate start day of that interval. The algorithm for calculations must be relative to the sponsor-defined RFSTDTC variable in the Demographics (DM) domain.","Perm"
"SENDIG v3.1.1","30","Findings","VS","VSENDY","Study Day of End of Measurement","Num","","",,"","Timing","Study day of the end of the vital signs measurement, in integer days. Can be populated when VSDY represents the start day of a continuous evaluation interval. The algorithm for calculations must be relative to the sponsor-defined RFSTDTC variable in the Demographics (DM) domain.","Perm"
"SENDIG v3.1.1","31","Findings","VS","VSNOMDY","Nominal Study Day for Tabulations","Num","","",,"","Timing","Nominal study day used for grouping records for observations that may occur on different days into a single reported study day. Should be an integer.","Exp"
"SENDIG v3.1.1","32","Findings","VS","VSNOMLBL","Label for Nominal Study Day","Char","","",,"","Timing","A label for a given value of VSNOMDY as presented in the study report. Examples: Pre-Treatment, Week 4, Day 28.","Perm"
"SENDIG v3.1.1","33","Findings","VS","VSTPT","Planned Time Point Name","Char","","",,"","Timing","Text description of time when the vital signs measurement should be taken. This may be represented as an elapsed time relative to a fixed reference point, such as time of last dose. See VSTPTNUM and VSTPTREF. Examples: Predose, 1 Hour Postdose.","Perm"
"SENDIG v3.1.1","34","Findings","VS","VSTPTNUM","Planned Time Point Number","Num","","",,"","Timing","Numerical version of VSTPT to aid in sorting.","Perm"
"SENDIG v3.1.1","35","Findings","VS","VSELTM","Planned Elapsed Time from Time Point Ref","Char","","","ISO 8601","","Timing","Planned elapsed time (in ISO 8601 format) relative to a planned fixed reference (VSTPTREF). This variable is useful where there are repetitive measures. Not a clock time or a date time variable. Represented as a duration in ISO 8601 format. Examples: '-PT15M' to represent the period of 15 minutes prior to the reference point indicated by VSTPTREF or 'PT8H' to represent the period of 8 hours after the reference point indicated by VSTPTREF.","Perm"
"SENDIG v3.1.1","36","Findings","VS","VSTPTREF","Time Point Reference","Char","","",,"","Timing","Name of the fixed reference point referred to by VSELTM, if used for VSTPTNUM, and VSTPT. It is recommended that VSTPTREF be as descriptive as possible so the reference time point can be inferred without looking at other variables. Examples: DAY 1 DOSE, DAY 1 MEAL.","Perm"
"SENDIG v3.1.1","37","Findings","VS","VSRFTDTC","Date/Time of Time Point Reference","Char","","","ISO 8601","","Timing","Date/Time of the reference time point, VSTPTREF.","Perm"
"SENDIG v3.1.1","1","Findings","EG","STUDYID","Study Identifier","Char","","",,"","Identifier","Unique identifier for a study.","Req"
"SENDIG v3.1.1","2","Findings","EG","DOMAIN","Domain Abbreviation","Char","","",,"EG","Identifier","Two-character abbreviation for the domain.","Req"
"SENDIG v3.1.1","3","Findings","EG","USUBJID","Unique Subject Identifier","Char","","",,"","Identifier","Identifier used to uniquely identify a subject across all studies for all applications or submissions involving the product.","Req"
"SENDIG v3.1.1","4","Findings","EG","EGSEQ","Sequence Number","Num","","",,"","Identifier","Sequence number given to ensure uniqueness of subject records within a domain. May be any valid number.","Req"
"SENDIG v3.1.1","5","Findings","EG","EGGRPID","Group Identifier","Char","","",,"","Identifier","Used to tie together a block of related records in a single domain for a subject. This is not the treatment group number.","Perm"
"SENDIG v3.1.1","6","Findings","EG","EGREFID","ECG Reference Identifier","Char","","",,"","Identifier","Internal or external ECG identifier. Example: UUID.","Perm"
"SENDIG v3.1.1","7","Findings","EG","EGSPID","Sponsor-Defined Identifier","Char","","",,"","Identifier","Sponsor-defined reference identifier.","Perm"
"SENDIG v3.1.1","8","Findings","EG","EGTESTCD","ECG Test Short Name","Char","C71153","EGTESTCD",,"","Topic","Short name of the measurement, test, or examination described in EGTEST. It can be used as a column name when converting a dataset from a vertical to a horizontal format. The value in EGTESTCD cannot be longer than 8 characters, nor can it start with a number (e.g., ""1TEST"" is not valid). EGTESTCD cannot contain characters other than letters, numbers, or underscores. Examples: EGHRMN, QTMAX.","Req"
"SENDIG v3.1.1","9","Findings","EG","EGTEST","ECG Test Name","Char","C71152","EGTEST",,"","Synonym Qualifier","Long name for EGTESTCD. The value in EGTEST cannot be longer than 40 characters. Examples: ECG Mean Heart Rate, Summary (Max) QT Duration.","Req"
"SENDIG v3.1.1","10","Findings","EG","EGCAT","Category for ECG","Char","C90012","EGCATSND",,"","Grouping Qualifier","Used to define a category of the ECG test performed. Examples: MEASUREMENT, DIAGNOSIS, INTERPRETATION.","Perm"
"SENDIG v3.1.1","11","Findings","EG","EGPOS","ECG Position of Subject","Char","C71148","POSITION",,"","Record Qualifier","Position of the subject during a measurement or examination. If the subject is restrained, populate with the position (example SITTING or STANDING); otherwise, populate with UNCONSTRAINED.","Exp"
"SENDIG v3.1.1","12","Findings","EG","EGORRES","Result or Findings as Collected","Char","","",,"","Result Qualifier","Result of the ECG measurement or finding as originally received or collected.","Exp"
"SENDIG v3.1.1","13","Findings","EG","EGORRESU","Unit of the Original Result","Char","C71620","UNIT",,"","Variable Qualifier","The unit for the original result. The unit of the original result should be mapped to a synonymous unit on the Controlled Terminology (http://www.cdisc.org/terminology) list.","Exp"
"SENDIG v3.1.1","14","Findings","EG","EGSTRESC","Standardized Result in Character Format","Char","C71150","EGSTRESC",,"","Result Qualifier","Contains the result value for all findings, copied or derived from EGORRES, in a standard format or standard units. EGSTRESC should store all results or findings in character format, using controlled terminology, where possible. If results are numeric, they should also be stored in numeric format in EGSTRESN.","Exp"
"SENDIG v3.1.1","15","Findings","EG","EGSTRESN","Standardized Result in Numeric Format","Num","","",,"","Result Qualifier","Used for numeric results or findings in standard format; contains the numeric form of EGSTRESC. EGSTRESN should store all numeric test results or findings.","Exp"
"SENDIG v3.1.1","16","Findings","EG","EGSTRESU","Unit of the Standardized Result","Char","C71620","UNIT",,"","Variable Qualifier","Standardized unit used for EGSTRESC and EGSTRESN.","Exp"
"SENDIG v3.1.1","17","Findings","EG","EGSTAT","Completion Status","Char","C66789","ND",,"","Record Qualifier","Used to indicate when a test is not done or result is missing. Should be null if a result exists in EGORRES.","Perm"
"SENDIG v3.1.1","18","Findings","EG","EGREASND","Reason Not Done","Char","","",,"","Record Qualifier","Describes why EGSTAT is NOT DONE, such as BROKEN EQUIPMENT.","Perm"
"SENDIG v3.1.1","19","Findings","EG","EGXFN","ECG External File Name","Char","","",,"","Record Qualifier","File name and path for the external ECG Waveform file. Would be used if sponsor is requested to submit waveform.","Perm"
"SENDIG v3.1.1","20","Findings","EG","EGNAM","Laboratory Name","Char","","",,"","Record Qualifier","Name or identifier of the laboratory or vendor that provided the test results.","Perm"
"SENDIG v3.1.1","21","Findings","EG","EGMETHOD","Method of ECG Test","Char","C71151","EGMETHOD",,"","Record Qualifier","Method of the test or examination. Examples: 12 LEAD STANDARD, 6 LEAD STANDARD.","Exp"
"SENDIG v3.1.1","22","Findings","EG","EGLEAD","Lead Used for Measurement","Char","C90013","EGLEAD",,"","Record Qualifier","Lead identified to capture the measurement.","Exp"
"SENDIG v3.1.1","23","Findings","EG","EGCSTATE","Consciousness State","Char","C90018","CSTATE",,"","Record Qualifier","Consciousness state of the subject at the time of measurement. Examples: CONSCIOUS, SEMI-CONSCIOUS, UNCONSCIOUS.","Exp"
"SENDIG v3.1.1","24","Findings","EG","EGBLFL","Baseline Flag","Char","C66742","NY",,"","Record Qualifier","A baseline indicator may be used to calculate differences or changes from baseline. Value should be Y or null. The baseline flag is sponsor defined.","Exp"
"SENDIG v3.1.1","25","Findings","EG","EGDRVFL","Derived Flag","Char","C66742","NY",,"","Record Qualifier","Used to indicate a derived record. The value should be Y or null. Records that represent the average of other records, or that are not as originally received or collected, are examples of records that might be derived for the submission datasets.","Perm"
"SENDIG v3.1.1","26","Findings","EG","EGEVAL","Evaluator","Char","","",,"","Record Qualifier","Role of the person who provided the evaluation. Should be null for records that contain collected or derived data. Examples: RESPONSIBLE SCIENTIST, PRINCIPAL INVESTIGATOR, PEER REVIEWER.","Perm"
"SENDIG v3.1.1","27","Findings","EG","EGEXCLFL","Exclusion Flag","Char","C66742","NY",,"","Record Qualifier","Y if the result should be excluded from all calculations, otherwise null.","Perm"
"SENDIG v3.1.1","28","Findings","EG","EGREASEX","Reason for Exclusion","Char","","",,"","Record Qualifier","The reason the result should be excluded from all calculations. Used only when EGEXCLFL is Y.","Perm"
"SENDIG v3.1.1","29","Findings","EG","EGUSCHFL","Unscheduled Flag","Char","C66742","NY",,"","Record Qualifier","Indicates whether the timing of the performed test or observation was unscheduled. If a test or observation was performed based upon a schedule defined in the protocol, this flag should be null. Expected values are Y or null.","Perm"
"SENDIG v3.1.1","30","Findings","EG","VISITDY","Planned Study Day of Collection","Num","","",,"","Timing","Planned study day of collection. Should be an integer.","Perm"
"SENDIG v3.1.1","31","Findings","EG","EGDTC","Date/Time of ECG Collection","Char","","","ISO 8601","","Timing","Date/Time of ECG data collection, in ISO 8601 format. For indicating measurement over a continuous period, DTC should be used to indicate start date/time of collection.","Exp"
"SENDIG v3.1.1","32","Findings","EG","EGENDTC","End Date/Time of ECG Collection","Char","","","ISO 8601","","Timing","Date/Time of end of the ECG data collection, in ISO 8601 format. Should be populated for measurement over a continuous period only.","Perm"
"SENDIG v3.1.1","33","Findings","EG","EGDY","Study Day of ECG Collection","Num","","",,"","Timing","Study day of the ECG measurement collection, in integer days. The algorithm for calculations must be relative to the sponsor-defined RFSTDTC variable in the Demographics (DM) domain.","Perm"
"SENDIG v3.1.1","34","Findings","EG","EGENDY","Study Day of End of ECG Collection","Num","","",,"","Timing","Study day of the end of the ECG measurement collection, in integer days. The algorithm for calculations must be relative to the sponsor-defined RFSTDTC variable in the Demographics (DM) domain.","Perm"
"SENDIG v3.1.1","35","Findings","EG","EGNOMDY","Nominal Study Day for Tabulations","Num","","",,"","Timing","Nominal study day used for grouping records for observations that may occur on different days into a single reported study day. Should be an integer.","Exp"
"SENDIG v3.1.1","36","Findings","EG","EGNOMLBL","Label for Nominal Study Day","Char","","",,"","Timing","A label for a given value of EGNOMDY as presented in the study report. Examples: Pre-Treatment, Week 4, Day 28.","Perm"
"SENDIG v3.1.1","37","Findings","EG","EGTPT","Planned Time Point Name","Char","","",,"","Timing","Text description of time when ECG data should be collected. Note: This may be represented as an elapsed time relative to a fixed reference point, such as time of last dose. See EGTPTNUM and EGTPTREF. Examples: Predose, 1 Hour Postdose.","Perm"
"SENDIG v3.1.1","38","Findings","EG","EGTPTNUM","Planned Time Point Number","Num","","",,"","Timing","Numerical version of EGTPT to aid in sorting.","Perm"
"SENDIG v3.1.1","39","Findings","EG","EGELTM","Planned Elapsed Time from Time Point Ref","Char","","","ISO 8601","","Timing","Planned elapsed time (in ISO 8601 format) relative to a fixed time point reference (EGTPTREF). This variable is useful where there are repetitive measures. Not a clock-time or a date-time variable. Represented as an ISO 8601 duration. Examples: ""-PT15M"" to represent the period of 15 minutes prior to the reference point indicated by EGTPTREF, or ""PT8H"" to represent the period of 8 hours after the reference point indicated by EGTPTREF.","Perm"
"SENDIG v3.1.1","40","Findings","EG","EGTPTREF","Time Point Reference","Char","","",,"","Timing","Name of the fixed reference point referred to by EGELTM, if used for EGTPTNUM, and EGTPT. It is recommended that EGTPTREF be as descriptive as possible so the reference time point can be inferred without looking at others variables. Example: DAY 1 FIRST DOSE.","Perm"
"SENDIG v3.1.1","41","Findings","EG","EGRFTDTC","Date/Time of Reference Time Point","Char","","","ISO 8601","","Timing","Date/Time of the reference time point, EGTPTREF.","Perm"
"SENDIG v3.1.1","42","Findings","EG","EGEVLINT","Evaluation Interval","Char","","","ISO 8601","","Timing","Length of evaluation interval in ISO 8601 duration format. Used in place of EGSTINT and EGENINT when EGTPTREF is not available.","Perm"
"SENDIG v3.1.1","43","Findings","EG","EGSTINT","Planned Start of Assessment Interval","Char","","","ISO 8601","","Timing","Planned Start of an asessment interval relative to Time Point Reference (EGTPTREF) in ISO 8601 duration format.","Perm"
"SENDIG v3.1.1","44","Findings","EG","EGENINT","Planned End of Assessment Interval","Char","","","ISO 8601","","Timing","Planned End of an assessment interval relative to Time Point Reference (EGTPTREF) in ISO 8601 duration format.","Perm"
"SENDIG v3.1.1","1","Findings","CV","STUDYID","Study Identifier","Char","","",,"","Identifier","Unique identifier for a study.","Req"
"SENDIG v3.1.1","2","Findings","CV","DOMAIN","Domain Abbreviation","Char","","",,"CV","Identifier","Two-character abbreviation for the domain.","Req"
"SENDIG v3.1.1","3","Findings","CV","USUBJID","Unique Subject Identifier","Char","","",,"","Identifier","Identifier used to uniquely identify a subject across all studies for all application or submissions involving the product.","Req"
"SENDIG v3.1.1","4","Findings","CV","CVSEQ","Sequence Number","Num","","",,"","Identifier","Sequence number given to ensure uniqueness of subject records within a domain. May be any valid number.","Req"
"SENDIG v3.1.1","5","Findings","CV","CVGRPID","Group Identifier","Char","","",,"","Identifier","Used to tie together a block of related records in a single domain for a subject and can be used to support relationships within the domain and between domains using RELREC. This is not the treatment group number.","Perm"
"SENDIG v3.1.1","6","Findings","CV","CVSPID","Sponsor-Defined Identifier","Char","","",,"","Identifier","Sponsor-defined reference identifier","Perm"
"SENDIG v3.1.1","7","Findings","CV","CVTESTCD","Test Short Name","Char","C120532","SCVTSTCD",,"","Topic","Short name of the measurement, test, or examination described in CVTEST. It can be used as a column name when converting a dataset from a vertical to a horizontal format. The value in CVTESTCD cannot be longer than 8 characters, nor can it start with a number (e.g., ""1TEST"" is not valid). CVTESTCD cannot contain characters other than letters, numbers, or underscores. Examples: DIABP, HR, MAP, SYSBP.","Req"
"SENDIG v3.1.1","8","Findings","CV","CVTEST","Test Name","Char","C120533","SCVTST",,"","Synonym Qualifier","Long name for CVTESTCD. The value in CVTEST cannot be longer than 40 characters. Examples: Diastolic Blood Pressure, Heart Rate, Mean Arterial Pressure, Systolic Blood Pressure.","Req"
"SENDIG v3.1.1","9","Findings","CV","CVPOS","Position of Subject During Test","Char","C71148","POSITION",,"","Record Qualifier","Position of the subject during the measurement or examination. If the subject is restrained, populate with the position (example SITTING or STANDING); otherwise, populate with UNCONSTRAINED.","Exp"
"SENDIG v3.1.1","10","Findings","CV","CVORRES","Result or Findings as Collected","Char","","",,"","Result Qualifier","Result of the measurement or finding as originally received or collected.","Exp"
"SENDIG v3.1.1","11","Findings","CV","CVORRESU","Unit of the Original Result","Char","C71620","UNIT",,"","Variable Qualifier","The unit for the original result. The unit of the original result should be mapped to a synonymous unit on the Controlled Terminology (http://www.cdisc.org/terminology) list.","Exp"
"SENDIG v3.1.1","12","Findings","CV","CVSTRESC","Standardized Result in Character Format","Char","","",,"","Result Qualifier","Contains the result value for all findings, copied or derived from CVORRES in a standard format or standard units. CVSTRESC should store all results or findings in character format; if results are numeric, they should also be stored in numeric format in CVSTRESN.","Exp"
"SENDIG v3.1.1","13","Findings","CV","CVSTRESN","Standardized Result in Numeric Format","Num","","",,"","Result Qualifier","Used for continuous or numeric results or findings in standard format; contains the numeric form of CVSTRESC. CVSTRESN should store all numeric test results or findings.","Exp"
"SENDIG v3.1.1","14","Findings","CV","CVSTRESU","Unit of the Standardized Result","Char","C71620","UNIT",,"","Variable Qualifier","Standardized unit used for CVSTRESC and CVSTRESN.","Exp"
"SENDIG v3.1.1","15","Findings","CV","CVSTAT","Completion Status","Char","C66789","ND",,"","Record Qualifier","Used to indicate when a test is not done or result is missing. Should be null if a result exists in CVORRES.","Perm"
"SENDIG v3.1.1","16","Findings","CV","CVREASND","Reason Not Done","Char","","",,"","Record Qualifier","Describes why CVSTAT is NOT DONE, such as BROKEN EQUIPMENT.","Perm"
"SENDIG v3.1.1","17","Findings","CV","CVMETHOD","Method of Test","Char","","",,"","Record Qualifier","Method of the test or examination. Examples: Intravascular, External Cuff.","Exp"
"SENDIG v3.1.1","18","Findings","CV","CVCSTATE","Consciousness State","Char","C90018","CSTATE",,"","Record Qualifier","Consciousness state of the subject at the time of measurement. Examples: CONSCIOUS, SEMI-CONSCIOUS, UNCONSCIOUS.","Exp"
"SENDIG v3.1.1","19","Findings","CV","CVBLFL","Baseline Flag","Char","C66742","NY",,"","Record Qualifier","A baseline indicator may be used to calculate differences or changes from baseline. Value should be Y or null. The baseline flag is sponsor defined.","Exp"
"SENDIG v3.1.1","20","Findings","CV","CVDRVFL","Derived Flag","Char","C66742","NY",,"","Record Qualifier","Used to indicate a derived record. The value should be Y or null.","Perm"
"SENDIG v3.1.1","21","Findings","CV","CVEXCLFL","Exclusion Flag","Char","C66742","NY",,"","Record Qualifier","Y if the result should be excluded from all calculations, otherwise null.","Perm"
"SENDIG v3.1.1","22","Findings","CV","CVREASEX","Reason for Exclusion","Char","","",,"","Record Qualifier","The reason the result should be excluded from all calculations. Used only when CVEXCLFL is Y.","Perm"
"SENDIG v3.1.1","23","Findings","CV","CVUSCHFL","Unscheduled Flag","Char","C66742","NY",,"","Record Qualifier","Indicates whether the timing of the performed test or observation was unscheduled. If a test or observation was performed based upon a schedule defined in the protocol, this flag should be null. Expected values are Y or null.","Perm"
"SENDIG v3.1.1","24","Findings","CV","CVDTC","Date/Time of Cardiovascular Test","Char","","","ISO 8601","","Timing","Date/Time of cardiovascular data collection, in ISO 8601 format. For measurements related to a continuous evaluation interval, CVDTC should be used to indicate the start date/time of that interval.","Exp"
"SENDIG v3.1.1","25","Findings","CV","CVENDTC","End Date/Time of Cardiovascular Test","Char","","","ISO 8601","","Timing","Date/Time of end of a cardiovascular evaluation interval, in ISO 8601 format. Should be populated when CVDTC represents the start date/time of a continuous evaluation interval.","Perm"
"SENDIG v3.1.1","26","Findings","CV","CVDY","Study Day of Cardiovascular Test","Num","","",,"","Timing","Study day of cardiovascular data collection, in integer days. For measurements related to a continuous evaluation interval, CVDY can be used to indicate start day of that interval. The algorithm for calculating the day must be relative to the sponsor-defined RFSTDTC variable in the Demographics (DM) domain.","Perm"
"SENDIG v3.1.1","27","Findings","CV","CVENDY","Study Day of End of Cardiovascular Test","Num","","",,"","Timing","Study day of the end of a cardiovascular evaluation interval, in integer days. Can be populated when CVDY represents the start day of a continuous evaluation interval. The algorithm for calculating the day must be relative to the sponsor-defined RFSTDTC variable in the Demographics (DM) domain.","Perm"
"SENDIG v3.1.1","28","Findings","CV","CVNOMDY","Nominal Study Day for Tabulations","Num","","",,"","Timing","Nominal study day used for grouping records for observations that may occur on different days into a single reported study day. Should be an integer.","Exp"
"SENDIG v3.1.1","29","Findings","CV","CVNOMLBL","Label for Nominal Study Day","Char","","",,"","Timing","A label for a given value of CVNOMDY as presented in the study report Examples: Pretreatment, Week 4, Day 28.","Perm"
"SENDIG v3.1.1","30","Findings","CV","CVTPT","Planned Time Point Name","Char","","",,"","Timing","Text description of time when data should be collected. This may be represented as an elapsed time relative to a fixed reference point, such as time of last dose. See CVTPTNUM and CVTPTREF. Examples: Predose, 1 Hour Postdose.","Exp"
"SENDIG v3.1.1","31","Findings","CV","CVTPTNUM","Planned Time Point Number","Num","","",,"","Timing","Numerical version of CVTPT to aid in sorting.","Exp"
"SENDIG v3.1.1","32","Findings","CV","CVELTM","Planned Elapsed Time from Time Point Ref","Char","","","ISO 8601","","Timing","Planned elapsed time (in ISO 8601 format) relative to a fixed time point reference (CVTPTREF). This variable is useful where there are repetitive measures. Not a clock time or a date time variable. Represented as an ISO 8601 duration. Examples: ""-PT15M"" to represent the period of 15 minutes prior to the reference point indicated by CVTPTREF, or ""PT8H"" to represent the period of 8 hours after the reference point indicated by CVTPTREF.","Exp"
"SENDIG v3.1.1","33","Findings","CV","CVTPTREF","Time Point Reference","Char","","",,"","Timing","Name of the fixed reference point referred to by CVELTM, if used for CVTPTNUM, and CVTPT. It is recommended that CVTPTREF be as descriptive as possible so the reference time point can be inferred without looking at others variables. Example: DAY 1 FIRST DOSE.","Exp"
"SENDIG v3.1.1","34","Findings","CV","CVRFTDTC","Date/Time of Reference Time Point","Char","","","ISO 8601","","Timing","Date/Time of the reference time point, CVTPTREF.","Perm"
"SENDIG v3.1.1","35","Findings","CV","CVEVLINT","Evaluation Interval","Char","","","ISO 8601","","Timing","Length of evaluation interval in ISO 8601 duration format. Used in place of CVSTINT and CVENINT when CVTPTREF is not available.","Perm"
"SENDIG v3.1.1","36","Findings","CV","CVSTINT","Planned Start of Assessment Interval","Char","","","ISO 8601","","Timing","Planned start of an assessment interval relative to Time Point Reference (CVTPTREF) in ISO 8601 duration format. Example: When the evaluation interval is from 1 to 2 hours after dosing, the value would be PT1H.","Exp"
"SENDIG v3.1.1","37","Findings","CV","CVENINT","Planned End of Assessment Interval","Char","","","ISO 8601","","Timing","Planned end of an assessment interval relative to Time Point Reference (CVTPTREF) in ISO 8601 duration format. Example: When the evaluation interval is from 1 to 2 hours after dosing, the value would be PT2H.","Exp"
"SENDIG v3.1.1","1","Findings","RE","STUDYID","Study Identifier","Char","","",,"","Identifier","Unique identifier for a study.","Req"
"SENDIG v3.1.1","2","Findings","RE","DOMAIN","Domain Abbreviation","Char","","",,"RE","Identifier","Two-character abbreviation for the domain.","Req"
"SENDIG v3.1.1","3","Findings","RE","USUBJID","Unique Subject Identifier","Char","","",,"","Identifier","Identifier used to uniquely identify a subject across all studies for all application or submissions involving the product.","Req"
"SENDIG v3.1.1","4","Findings","RE","RESEQ","Sequence Number","Num","","",,"","Identifier","Sequence number given to ensure uniqueness of subject records within a domain. May be any valid number.","Req"
"SENDIG v3.1.1","5","Findings","RE","REGRPID","Group Identifier","Char","","",,"","Identifier","Used to tie together a block of related records in a single domain for a subject and can be used to support relationships within the domain and between domains using RELREC. This is not the treatment group number.","Perm"
"SENDIG v3.1.1","6","Findings","RE","RESPID","Sponsor-Defined Identifier","Char","","",,"","Identifier","Sponsor-defined reference identifier.","Perm"
"SENDIG v3.1.1","7","Findings","RE","RETESTCD","Test Short Name","Char","C120534","SRETSTCD",,"","Topic","Short name of the measurement, test, or examination described in RETEST. It can be used as a column name when converting a dataset from a vertical to a horizontal format. The value in RETESTCD cannot be longer than 8 characters, nor can it start with a number (e.g., ""1TEST"" is not valid). RETESTCD cannot contain characters other than letters, numbers, or underscores. Examples: RESPRATE, TIDALVOL, MV.","Req"
"SENDIG v3.1.1","8","Findings","RE","RETEST","Test Name","Char","C120535","SRETST",,"","Synonym Qualifier","Long name for RETESTCD. The value in RETEST cannot be longer than 40 characters. Examples: Respiratory Rate, Tidal Volume, Minute Volume.","Req"
"SENDIG v3.1.1","9","Findings","RE","REPOS","Position of Subject During Test","Char","C71148","POSITION",,"","Record Qualifier","Position of the subject during the measurement or examination, If the subject is restrained, populate with the position (example SITTING or STANDING); otherwise, populate with UNCONSTRAINED.","Exp"
"SENDIG v3.1.1","10","Findings","RE","REORRES","Result or Findings as Collected","Char","","",,"","Result Qualifier","Result of the measurement or finding as originally received or collected.","Exp"
"SENDIG v3.1.1","11","Findings","RE","REORRESU","Unit of the Original Result","Char","C71620","UNIT",,"","Variable Qualifier","The unit for the original result. The unit of the original result should be mapped to a synonymous unit on the Controlled Terminology (http://www.cdisc.org/terminology) list.","Exp"
"SENDIG v3.1.1","12","Findings","RE","RESTRESC","Standardized Result in Character Format","Char","","",,"","Result Qualifier","Contains the result value for all findings, copied or derived from REORRES in a standard format or standard units. RESTRESC should store all results or findings in character format; if results are numeric, they should also be stored in numeric format in RESTRESN.","Exp"
"SENDIG v3.1.1","13","Findings","RE","RESTRESN","Standardized Result in Numeric Format","Num","","",,"","Result Qualifier","Used for continuous or numeric results or findings in standard format; contains the numeric form of RESTRESC. RESTRESN should store all numeric test results or findings.","Exp"
"SENDIG v3.1.1","14","Findings","RE","RESTRESU","Unit of the Standardized Result","Char","C71620","UNIT",,"","Variable Qualifier","Standardized unit used for RESTRESC and RESTRESN.","Exp"
"SENDIG v3.1.1","15","Findings","RE","RESTAT","Completion Status","Char","C66789","ND",,"","Record Qualifier","Used to indicate when a test is not done or result is missing. Should be null if a result exists in REORRES.","Perm"
"SENDIG v3.1.1","16","Findings","RE","REREASND","Reason Not Done","Char","","",,"","Record Qualifier","Describes why RESTAT is NOT DONE, such as BROKEN EQUIPMENT.","Perm"
"SENDIG v3.1.1","17","Findings","RE","REMETHOD","Method of Test","Char","","",,"","Record Qualifier","Method of the test or examination. Examples: Whole body plethysmograph, Head-out plethysmograph, Invasive.","Exp"
"SENDIG v3.1.1","18","Findings","RE","RECSTATE","Consciousness State","Char","C90018","CSTATE",,"","Record Qualifier","Consciousness state of the subject at the time of measurement. Examples: CONSCIOUS, SEMI-CONSCIOUS, UNCONSCIOUS","Exp"
"SENDIG v3.1.1","19","Findings","RE","REBLFL","Baseline Flag","Char","C66742","NY",,"","Record Qualifier","A baseline indicator may be used to calculate differences or changes from baseline. Value should be Y or null. The baseline flag is sponsor defined.","Exp"
"SENDIG v3.1.1","20","Findings","RE","REDRVFL","Derived Flag","Char","C66742","NY",,"","Record Qualifier","Used to indicate a derived record. The value should be Y or null.","Perm"
"SENDIG v3.1.1","21","Findings","RE","REEXCLFL","Exclusion Flag","Char","C66742","NY",,"","Record Qualifier","Y if the result should be excluded from all calculations, otherwise null.","Perm"
"SENDIG v3.1.1","22","Findings","RE","REREASEX","Reason for Exclusion","Char","","",,"","Record Qualifier","The reason the result should be excluded from all calculations. Used only when REEXCLFL is Y.","Perm"
"SENDIG v3.1.1","23","Findings","RE","REUSCHFL","Unscheduled Flag","Char","C66742","NY",,"","Record Qualifier","Indicates whether the timing of the performed test or observation was unscheduled. If a test or observation was performed based upon a schedule defined in the protocol, this flag should be null. Expected values are Y or null.","Perm"
"SENDIG v3.1.1","24","Findings","RE","REDTC","Date/Time of Respiratory Measurement","Char","","","ISO 8601","","Timing","Date/Time of respiratory data collection, in ISO 8601 format. For measurements related to a continuous evaluation interval, REDTC should be used to indicate the start date/time of that interval.","Exp"
"SENDIG v3.1.1","25","Findings","RE","REENDTC","End Date/Time of Respiratory Measurement","Char","","","ISO 8601","","Timing","Date/Time of end of the respiratory evaluation interval, in ISO 8601 format. Should be populated when REDTC represents the start date/time of a continuous evaluation interval.","Perm"
"SENDIG v3.1.1","26","Findings","RE","REDY","Study Day of Respiratory Measurement","Num","","",,"","Timing","Study day of respiratory data collection, in integer days. For measurements related to a continuous evaluation interval, REDY can be used to indicate start day of that interval. The algorithm for calculations must be relative to the sponsor-defined RFSTDTC variable in the Demographics (DM) domain.","Perm"
"SENDIG v3.1.1","27","Findings","RE","REENDY","End Study Day of Respiratory Measurement","Num","","",,"","Timing","Study day of the respiratory data collection, in integer days. Can be populated when REDY represents the start day of a continuous evaluation interval. The algorithm for calculations must be relative to the sponsor-defined RFSTDTC variable in the Demographics (DM) domain.","Perm"
"SENDIG v3.1.1","28","Findings","RE","RENOMDY","Nominal Study Day for Tabulations","Num","","",,"","Timing","Nominal study day used for grouping records for observations that may occur on different days into a single reported study day. Should be an integer.","Exp"
"SENDIG v3.1.1","29","Findings","RE","RENOMLBL","Label for Nominal Study Day","Char","","",,"","Timing","A label for a given value of RENOMDY as presented in the study report. Examples: Pretreatment, Week 4, Day 28.","Perm"
"SENDIG v3.1.1","30","Findings","RE","RETPT","Planned Time Point Name","Char","","",,"","Timing","Text description of time when respiratory data should be collected. This may be represented as an elapsed time relative to a fixed reference point, such as time of last dose. See RETPTNUM and RETPTREF. Examples: Predose, 1 Hour Postdose.","Exp"
"SENDIG v3.1.1","31","Findings","RE","RETPTNUM","Planned Time Point Number","Num","","",,"","Timing","Numerical version of RETPT to aid in sorting.","Exp"
"SENDIG v3.1.1","32","Findings","RE","REELTM","Planned Elapsed Time from Time Point Ref","Char","","","ISO 8601","","Timing","Planned elapsed time (in ISO 8601 format) relative to a fixed time point reference (RETPTREF). This variable is useful where there are repetitive measures. Not a clock time or a date time variable. Represented as an ISO 8601 duration. Examples: ""-PT15M"" to represent the period of 15 minutes prior to the reference point indicated by RETPTREF, or ""PT8H"" to represent the period of 8 hours after the reference point indicated by RETPTREF.","Exp"
"SENDIG v3.1.1","33","Findings","RE","RETPTREF","Time Point Reference","Char","","",,"","Timing","Name of the fixed reference point referred to by REELTM, if used for RETPTNUM, and RETPT. It is recommended that RETPTREF be as descriptive as possible so the reference time point can be inferred without looking at others variables. Example: DAY 1 FIRST DOSE.","Exp"
"SENDIG v3.1.1","34","Findings","RE","RERFTDTC","Date/Time of Reference Time Point","Char","","","ISO 8601","","Timing","Date/Time of the reference time point, RETPTREF.","Perm"
"SENDIG v3.1.1","35","Findings","RE","REEVLINT","Evaluation Interval","Char","","","ISO 8601","","Timing","Length of evaluation interval in ISO 8601 duration format. Used in place of RESTINT and REENINT when RETPTREF is not available.","Perm"
"SENDIG v3.1.1","36","Findings","RE","RESTINT","Planned Start of Assessment Interval","Char","","","ISO 8601","","Timing","Planned start of an assessment interval relative to Time Point Reference (RETPTREF) in ISO 8601 duration format. Example: When the evaluation interval is from 1 to 2 hours after dosing, the value would be PT1H.","Exp"
"SENDIG v3.1.1","37","Findings","RE","REENINT","Planned End of Assessment Interval","Char","","","ISO 8601","","Timing","Planned end of an assessment interval relative to Time Point Reference (RETPTREF) in ISO 8601 duration format. Example: When the evaluation interval is from 1 to 2 hours after dosing, the value would be PT2H.","Exp"
"SENDIG v3.1.1","1","Special-Purpose","DM","STUDYID","Study Identifier","Char","","",,"","Identifier","Unique identifier for a study.","Req"
"SENDIG v3.1.1","2","Special-Purpose","DM","DOMAIN","Domain Abbreviation","Char","","",,"DM","Identifier","Two-character abbreviation for the domain.","Req"
"SENDIG v3.1.1","3","Special-Purpose","DM","USUBJID","Unique Subject Identifier","Char","","",,"","Identifier","Identifier used to uniquely identify a subject across all studies for all applications or submissions involving the product.","Req"
"SENDIG v3.1.1","4","Special-Purpose","DM","SUBJID","Subject Identifier for the Study","Char","","",,"","Topic","Subject (i.e., Animal) identifier used within the study.","Req"
"SENDIG v3.1.1","5","Special-Purpose","DM","RFSTDTC","Subject Reference Start Date/Time","Char","","","ISO 8601","","Record Qualifier","Reference start date/time for the subject in ISO 8601 format. Usually equivalent to date/time when subject was first exposed to study treatment. Study day calculation (the --DY variable) in all domains will be based on this date. The sponsor must define what collected date is used to populate RFSTDTC in the data definition file.","Req"
"SENDIG v3.1.1","6","Special-Purpose","DM","RFENDTC","Subject Reference End Date/Time","Char","","","ISO 8601","","Record Qualifier","Reference end date/time for the subject in ISO 8601 format. Usually equivalent to the date/time when the subject was determined to have left the study. The sponsor must define what collected date is used to populate RFENDTC in the data definition file.","Exp"
"SENDIG v3.1.1","7","Special-Purpose","DM","RFXSTDTC","Date/Time of First Study Treatment","Char","","","ISO 8601","","Record Qualifier","First date/time of exposure to any protocol-specified treatment or therapy, equal to the earliest value of EXSTDTC. Note: Absolute first.","Perm"
"SENDIG v3.1.1","8","Special-Purpose","DM","RFXENDTC","Date/Time of Last Study Treatment","Char","","","ISO 8601","","Record Qualifier","Last date/time of exposure to any protocol-specified treatment or therapy, equal to the latest value of EXENDTC (or the latest value of EXSTDTC if EXENDTC was not collected or is missing). Note: Absolute last","Perm"
"SENDIG v3.1.1","9","Special-Purpose","DM","SITEID","Study Site Identifier","Char","","",,"","Record Qualifier","Unique identifier for a study site within a submission. Use only if subjects are housed at different sites.","Perm"
"SENDIG v3.1.1","10","Special-Purpose","DM","BRTHDTC","Date/Time of Birth","Char","","","ISO 8601","","Record Qualifier","Date/Time of birth of the subject, in ISO 8601 format.","Perm"
"SENDIG v3.1.1","11","Special-Purpose","DM","AGE","Age","Num","","",,"","Record Qualifier","May be derived (RFSTDTC - BRTHDTC), but BRTHDTC may not be available in all cases. Age may also be collected.","Perm"
"SENDIG v3.1.1","12","Special-Purpose","DM","AGETXT","Age Range","Char","","","number-number","","Record Qualifier","Used when the age is a range and the exact birthdate is not known. This variable is a character field for the purposes of defining age ranges, e.g., if the information available for the age of the subject is 6-8 and AGEU is WEEKS. Populate only when BRTHDTC or AGE is not specified. The format for AGETXT is ""number-number"" (e.g., 6-8).","Perm"
"SENDIG v3.1.1","13","Special-Purpose","DM","AGEU","Age Unit","Char","C66781","AGEU",,"","Variable Qualifier","Units associated with AGE and AGETXT.","Exp"
"SENDIG v3.1.1","14","Special-Purpose","DM","SEX","Sex","Char","C66731","SEX",,"","Record Qualifier","The sex of the subject.","Req"
"SENDIG v3.1.1","15","Special-Purpose","DM","SPECIES","Species","Char","C77808","SPECIES",,"","Record Qualifier","If this variable is excluded in the DM domain, the information must be present at a higher level (either Trial Sets or Trial Summary).","Perm"
"SENDIG v3.1.1","16","Special-Purpose","DM","STRAIN","Strain/Substrain","Char","C77530","STRAIN",,"","Record Qualifier","Used to identify the vendor-supplied strain, substrain, or breed designation for the test system under study. It may combine the background strain, substrain, and associated genetic modifications as supplied by the vendor (e.g., C57BL/6, A/J, B6.129-Pparg<tm2Rev>/J, FISCHER 344, SPRAGUE-DAWLEY IGS, WISTAR Kyoto, BEAGLE, CYNOMOLGUS, and CHIMPANZEE). The SEND Controlled Terminology codelist consists of commonly used wild type strains. It is extensible to accommodate strains not listed and genetically modified substrains. If this variable is excluded in the DM domain, the information must be present at a higher level (either Trial Sets or Trial Summary). Country of origin for non-human primates should not go into STRAIN. In general, details related to coat color (e.g., White and Red designations for New Zealand Rabbits) should not go into STRAIN.","Perm"
"SENDIG v3.1.1","17","Special-Purpose","DM","SBSTRAIN","Strain/Substrain Details","Char","","",,"","Record Qualifier","Free-text field that allows the sponsor to enter further details qualifiying the SPECIES and/or STRAIN, depending on the level to which these variables were defined. Examples include the description of a specific genetic alteration, country of origin for non-human primates, details related to coat color (e.g., White and Red designations for New Zealand Rabbits), and important animal husbandry information (e.g., SPF, BR, VAF).","Perm"
"SENDIG v3.1.1","18","Special-Purpose","DM","ARMCD","Planned Arm Code","Char","","",,"","Record Qualifier","Short name for ARM (may be up to 20 characters) used for sorting and programming. Should be populated when Arms have been defined in the TA domain.","Exp"
"SENDIG v3.1.1","19","Special-Purpose","DM","ARM","Description of Planned Arm","Char","","",,"","Synonym Qualifier","Descriptive name given to a specific Trial Arm (e.g., Low Dose, Mid Dose, 10 mg/kg/day dose, Third Arm) to which the subject was assigned.","Perm"
"SENDIG v3.1.1","20","Special-Purpose","DM","SETCD","Set Code","Char","","",,"","Record Qualifier","Short name of a specific Trial Set to which the subject was assigned, as defined by the sponsor. Maximum of 8 characters. This represents the Trial Set for which parameters are being submitted.","Req"
"SENDIG v3.1.1","1","Special-Purpose","CO","STUDYID","Study Identifier","Char","","",,"","Identifier","Unique identifier for a study.","Req"
"SENDIG v3.1.1","2","Special-Purpose","CO","DOMAIN","Domain Abbreviation","Char","","",,"CO","Identifier","Two-character abbreviation for the domain.","Req"
"SENDIG v3.1.1","3","Special-Purpose","CO","RDOMAIN","Related Domain Abbreviation","Char","","",,"","Record Qualifier","Domain abbreviation of the parent record(s). Null for comments collected as a general comment or additional information.","Exp"
"SENDIG v3.1.1","4","Special-Purpose","CO","USUBJID","Unique Subject Identifier","Char","","",,"","Identifier","Identifier used to uniquely identify a subject across all studies for all applications or submissions involving the product. Either USUBJID or POOLID must be populated unless the record contains a study comment unrelated to a USUBJID or POOLID.","Exp"
"SENDIG v3.1.1","5","Special-Purpose","CO","POOLID","Pool Identifier","Char","","",,"","Identifier","Identifier used for pooled subjects to assign a single result to multiple subjects. Either USUBJID or POOLID must be populated unless the record contains a study comment unrelated to a USUBJID or POOLID.","Perm"
"SENDIG v3.1.1","6","Special-Purpose","CO","COSEQ","Sequence Number","Num","","",,"","Identifier","The sequence number must be unique for each record within a USUBJID or POOLID, whichever applies for the record.","Req"
"SENDIG v3.1.1","7","Special-Purpose","CO","IDVAR","Identifying Variable","Char","","",,"","Record Qualifier","Variable in the parent dataset that identifies the record(s) to which the comment applies, which is contained in IDVAR. Examples: BWSEQ or CLGRPID. Used only when individual comments are related to domain records.","Exp"
"SENDIG v3.1.1","8","Special-Purpose","CO","IDVARVAL","Identifying Variable Value","Char","","",,"","Record Qualifier","Value of identifying variable of the parent record(s). Used only when individual comments are related to domain records. Cannot be populated if IDVAR is null.","Exp"
"SENDIG v3.1.1","9","Special-Purpose","CO","COREF","Comment Reference","Char","","",,"","Record Qualifier","Sponsor-defined reference associated with the comment. May be the logbook page number, name (e.g., Logbook), or a combination of information that identifies the reference (e.g., Logbook, page 650, Day 28, morning).","Perm"
"SENDIG v3.1.1","10","Special-Purpose","CO","COVAL","Comment","Char","","",,"","Topic","The text of the comment. Text over 200 characters can be added to additional columns COVAL1-COVALn. See Assumption 4 in Section 5.2.1.1.","Req"
"SENDIG v3.1.1","11","Special-Purpose","CO","COEVAL","Evaluator","Char","","",,"","Record Qualifier","Used to describe the originator of the comment. Examples: TECHNICIAN, STUDY DIRECTOR, VET.","Perm"
"SENDIG v3.1.1","12","Special-Purpose","CO","CODTC","Date/Time of Comment","Char","","","ISO 8601","","Timing","Date/Time of the comment, in ISO 8601 format. May be null if this is a child record of another domain or if the comment date was not collected. In all other cases, this represents the date/time of the comment in ISO 8601 format.","Exp"
"SENDIG v3.1.1","13","Special-Purpose","CO","CODY","Study Day of Comment","Num","","",,"","Timing","Study day of the comment, in integer days. May be null if this is a child record of another domain or if the comment date was not collected. The algorithm for calculations must be relative to the sponsor-defined RFSTDTC variable in the Demographics (DM) domain.","Perm"
"SENDIG v3.1.1","1","Special-Purpose","SE","STUDYID","Study Identifier","Char","","",,"","Identifier","Unique identifier for a study.","Req"
"SENDIG v3.1.1","2","Special-Purpose","SE","DOMAIN","Domain Abbreviation","Char","","",,"SE","Identifier","Two-character abbreviation for the domain.","Req"
"SENDIG v3.1.1","3","Special-Purpose","SE","USUBJID","Unique Subject Identifier","Char","","",,"","Identifier","Identifier used to uniquely identify a subject across all studies for all applications or submissions involving the product.","Req"
"SENDIG v3.1.1","4","Special-Purpose","SE","SESEQ","Sequence Number","Num","","",,"","Identifier","Sequence number given to ensure uniqueness of subject records within a USUBJID within a domain. May be any valid number.","Req"
"SENDIG v3.1.1","5","Special-Purpose","SE","ETCD","Element Code","Char","","",,"","Topic","ETCD (the companion to ELEMENT) is limited to 8 characters and does not have special character restrictions.","Req"
"SENDIG v3.1.1","6","Special-Purpose","SE","ELEMENT","Description of Element","Char","","",,"","Synonym Qualifier","The name of the Element..","Perm"
"SENDIG v3.1.1","7","Special-Purpose","SE","SESTDTC","Start Date/Time of Element","Char","","","ISO 8601","","Timing","Start date/time for an Element for each subject, in ISO 8601 format.","Req"
"SENDIG v3.1.1","8","Special-Purpose","SE","SEENDTC","End Date/Time of Element","Char","","","ISO 8601","","Timing","End date/time for an Element for each subject, in ISO 8601 format.","Exp"
"SENDIG v3.1.1","9","Special-Purpose","SE","SEUPDES","Description of Unplanned Element","Char","","",,"","Synonym Qualifier","Description of what happened to the subject during an unplanned Element. Used only if ETCD has the value of UNPLAN.","Perm"
"SENDIG v3.1.1","1","Trial Design","TE","STUDYID","Study Identifier","Char","","",,"","Identifier","Unique identifier for a study.","Req"
"SENDIG v3.1.1","2","Trial Design","TE","DOMAIN","Domain Abbreviation","Char","","",,"TE","Identifier","Two-character abbreviation for the domain.","Req"
"SENDIG v3.1.1","3","Trial Design","TE","ETCD","Element Code","Char","","",,"","Topic","ETCD (the short form of ELEMENT) is limited to 8 characters and does not have special character restrictions.","Req"
"SENDIG v3.1.1","4","Trial Design","TE","ELEMENT","Description of Element","Char","","",,"","Synonym Qualifier","The name of the Element.","Req"
"SENDIG v3.1.1","5","Trial Design","TE","TESTRL","Rule for Start of Element","Char","","",,"","Rule","Expresses rule for beginning Element.","Req"
"SENDIG v3.1.1","6","Trial Design","TE","TEENRL","Rule for End of Element","Char","","",,"","Rule","Expresses rule for ending Element. Either TEENRL or TEDUR must be present for each Element; both may be present.","Perm"
"SENDIG v3.1.1","7","Trial Design","TE","TEDUR","Planned Duration of Element","Char","","","ISO 8601","","Timing","Planned duration of Element in ISO 8601 format. Use when an Element represents a fixed duration. TEENRL or TEDUR must be present for each Element; both may be present.","Perm"
"SENDIG v3.1.1","1","Trial Design","TA","STUDYID","Study Identifier","Char","","",,"","Identifier","Unique identifier for a study.","Req"
"SENDIG v3.1.1","2","Trial Design","TA","DOMAIN","Domain Abbreviation","Char","","",,"TA","Identifier","Two-character abbreviation for the domain.","Req"
"SENDIG v3.1.1","3","Trial Design","TA","ARMCD","Planned Arm Code","Char","","",,"","Topic","Short name of a specific ARM (may be up to 20 characters) used for sorting and programming. Should be populated in Demographics when Arms have been defined in this domain.","Req"
"SENDIG v3.1.1","4","Trial Design","TA","ARM","Description of Planned Arm","Char","","",,"","Synonym Qualifier","Descriptive name given to a specific Trial Arm (e.g., Low Dose, Mid Dose, 10 mg/kg/day dose).","Req"
"SENDIG v3.1.1","5","Trial Design","TA","TAETORD","Order of Element within Arm","Num","","",,"","Timing","Number that provides the order of the planned Element within the Arm. This value should be an integer.","Req"
"SENDIG v3.1.1","6","Trial Design","TA","ETCD","Element Code","Char","","",,"","Record Qualifier","ETCD (the companion to ELEMENT) is limited to 8 characters and does not have special character restrictions.","Req"
"SENDIG v3.1.1","7","Trial Design","TA","ELEMENT","Description of Element","Char","","",,"","Synonym Qualifier","The name of the Element.","Perm"
"SENDIG v3.1.1","8","Trial Design","TA","TABRANCH","Branch","Char","","",,"","Rule","Conditions subjects meet, occurring at the end of an Element, which cause an Arm to branch off from other Arms (e.g., randomization to control group).","Perm"
"SENDIG v3.1.1","9","Trial Design","TA","TATRANS","Transition Rule","Char","","",,"","Rule","If the study design allows for a subject to transition to an Element other than the next sequential Element, as defined by TAETORD, then the conditions for transitioning to those other Elements, as well as the alternative Element sequences, are specified in this rule (e.g., TATRANS = 'Subject with Hypoactivity Transitions to Rest Period to Treatment 2').","Perm"
"SENDIG v3.1.1","10","Trial Design","TA","EPOCH","Trial Epoch","Char","","",,"","Timing","Name of the study Epoch with which this Element of the Arm is associated (e.g., Treatment, Screen). Equivalent to 'Phase' or 'Period.'","Exp"
"SENDIG v3.1.1","1","Trial Design","TX","STUDYID","Study Identifier","Char","","",,"","Identifier","Unique identifier for a study.","Req"
"SENDIG v3.1.1","2","Trial Design","TX","DOMAIN","Domain Abbreviation","Char","","",,"TX","Identifier","Two-character abbreviation for the domain.","Req"
"SENDIG v3.1.1","3","Trial Design","TX","SETCD","Set Code","Char","","",,"","Identifier","Short name of the Trial Set. The same element may occur more than once within an Arm. Maximum 8 characters. This represents the Trial Set for which parameters are being submitted.","Req"
"SENDIG v3.1.1","4","Trial Design","TX","SET","Set Description","Char","","",,"","Synonym Qualifier","Long description of a specific Trial Set, as defined by the sponsor.","Req"
"SENDIG v3.1.1","5","Trial Design","TX","TXSEQ","Sequence Number","Num","","",,"","Identifier","Unique number for this record within this dataset. (This sequence should be unique within the entire dataset because there is no USUBJID.)","Req"
"SENDIG v3.1.1","6","Trial Design","TX","TXPARMCD","Trial Set Parameter Short Name","Char","C90009","STSPRMCD",,"","Topic","Short character value for the Trial Set parameter described in TXPARM. Maximum 8 characters.","Req"
"SENDIG v3.1.1","7","Trial Design","TX","TXPARM","Trial Set Parameter","Char","C90007","STSPRM",,"","Synonym Qualifier","Term for the Trial Set parameter. Maximum 40 characters.","Req"
"SENDIG v3.1.1","8","Trial Design","TX","TXVAL","Trial Set Parameter Value","Char","","",,"","Result Qualifier","Value of the Trial Set parameter (e.g., Fed ad libitum or Restricted Feeding when TXPARM is FEEDREG). Some parameters may be subject to controlled terminology. See the Controlled Terms, Codelist, or Format column in Section 7.4.2 that lists all defined Trial Set parameters.","Req"
"SENDIG v3.1.1","1","Trial Design","TS","STUDYID","Study Identifier","Char","","",,"","Identifier","Unique identifier for a study within the submission.","Req"
"SENDIG v3.1.1","2","Trial Design","TS","DOMAIN","Domain Abbreviation","Char","","",,"TS","Identifier","Two-character abbreviation for the domain most relevant to the observation.","Req"
"SENDIG v3.1.1","3","Trial Design","TS","TSSEQ","Sequence Number","Num","","",,"","Identifier","Sequence number used to ensure uniqueness within a TSPARMCD. Allows inclusion of multiple records for the same TSPARMCD, and can be used to join related records.","Req"
"SENDIG v3.1.1","4","Trial Design","TS","TSGRPID","Group Identifier","Char","","",,"","Identifier","Used to tie together a group of related records. This is not the sponsor-defined protocol group number.","Exp"
"SENDIG v3.1.1","5","Trial Design","TS","TSPARMCD","Trial Summary Parameter Short Name","Char","C90009","STSPRMCD",,"","Topic","Short character value for the trial design characteristic described in TSPARM. Value must be 8 characters or less.","Req"
"SENDIG v3.1.1","6","Trial Design","TS","TSPARM","Trial Summary Parameter","Char","C90007","STSPRM",,"","Synonym Qualifier","Term for the trial parameter. Value must be 40 characters or less.","Req"
"SENDIG v3.1.1","7","Trial Design","TS","TSVAL","Parameter Value","Char","","",,"","Result Qualifier","Value of the TS parameter (e.g., ""FDA"" when TSPARM is GLP Type). The values for some parameters may be subject to controlled terminology. See the Controlled Terms, Codelist, or Format column in Section 7.6.3 that lists all defined parameters. TSVAL can only be null if TSVALNF is populated.","Exp"
"SENDIG v3.1.1","8","Trial Design","TS","TSVALNF","Parameter Null Flavor","Char","","","ISO 21090 NullFlavor enumeration","","Record Qualifier","Null flavor for the value of the TSPARMs, which should be included according to the trial summary code table below if and only if TSVAL is null.","Perm"
"SENDIG v3.1.1","1","Relationship","RELREC","STUDYID","Study Identifier","Char","","",,"",,"Unique identifier for a study.","Req"
"SENDIG v3.1.1","2","Relationship","RELREC","RDOMAIN","Related Domain Abbreviation","Char","","",,"",,"Two-character abbreviation for the domain of the parent record(s).","Req"
"SENDIG v3.1.1","3","Relationship","RELREC","USUBJID","Unique Subject Identifier","Char","","",,"",,"Unique Subject Identifier of the Parent record(s). Either USUBJID or POOLID must be populated, except for certain domain-to-domain relationships (see Section 8.2.3).","Exp"
"SENDIG v3.1.1","4","Relationship","RELREC","POOLID","Pool Identifier","Char","","",,"",,"Pool Identifier of the Parent record(s). If POOLID is entered, POOLDEF records must exist for each subject and the USUBJID must be null. Either USUBJID or POOLID must be populated.","Perm"
"SENDIG v3.1.1","5","Relationship","RELREC","IDVAR","Identifying Variable","Char","","",,"",,"Name of the identifying variable in the general observation class domain that identifies the related record(s). Examples include BWSEQ and BWGRPID.","Req"
"SENDIG v3.1.1","6","Relationship","RELREC","IDVARVAL","Identifying Variable Value","Char","","",,"",,"Value of identifying variable described in IDVAR. For example, if BWSEQ is the variable being used to describe this record, then the value of BWSEQ would be entered here.","Exp"
"SENDIG v3.1.1","7","Relationship","RELREC","RELTYPE","Relationship Type","Char","C78737","RELTYPE",,"",,"Identifies the hierarchical level of the records in the relationship. Values are only necessary when identifying a relationship between domains (as described in Section 8.4). Values should be either ONE or MANY.","Perm"
"SENDIG v3.1.1","8","Relationship","RELREC","RELID","Relationship Identifier","Char","","",,"",,"Unique value within a study that identifies the relationship. RELID can be any value the sponsor chooses and is only meaningful within the df dataset to identify the related/associated domain records.","Req"
"SENDIG v3.1.1","1","Relationship","SUPPQUAL","STUDYID","Study Identifier","Char","","",,"",,"Unique study identifier of the parent record(s).","Req"
"SENDIG v3.1.1","2","Relationship","SUPPQUAL","RDOMAIN","Related Domain Abbreviation","Char","","",,"",,"Two-character abbreviation for the domain of the parent record(s).","Req"
"SENDIG v3.1.1","3","Relationship","SUPPQUAL","USUBJID","Unique Subject Identifier","Char","","",,"",,"Unique subject identifier of the parent record(s). Either USUBJID or POOLID must be populated.","Exp"
"SENDIG v3.1.1","4","Relationship","SUPPQUAL","POOLID","Pool Identifier","Char","","",,"",,"Pool identifier of the Parent record(s).. If POOLID is entered, POOLDEF records must exist for each subject and the USUBJID must be null. Either USUBJID or POOLID must be populated.","Perm"
"SENDIG v3.1.1","5","Relationship","SUPPQUAL","IDVAR","Identifying Variable","Char","","",,"",,"Identifying variable in the dataset that identifies the related record(s). Examples: BWSEQ, CLGRPID.","Exp"
"SENDIG v3.1.1","6","Relationship","SUPPQUAL","IDVARVAL","Identifying Variable Value","Char","","",,"",,"Value of identifying variable of the parent record(s).","Exp"
"SENDIG v3.1.1","7","Relationship","SUPPQUAL","QNAM","Qualifier Variable Name","Char","","",,"",,"The short name of the Qualifier variable, which is used as a column name in a domain view with data from the parent domain. The value in QNAM cannot be longer than 8 characters nor can it start with a number (e.g., ""1TEST"" is not valid). QNAM cannot contain characters other than letters, numbers, or underscores. This will often be the column name in the sponsor's operational dataset. The value in QNAM may not be the same as any variable name defined in another domain or the SDTM. The QNAM should uniquely correspond to a QLABEL within a single domain.","Req"
"SENDIG v3.1.1","8","Relationship","SUPPQUAL","QLABEL","Qualifier Variable Label","Char","","",,"",,"This is the long name or label associated with QNAM. The value in QLABEL should be in title case and cannot be longer than 40 characters. This will often be the column label in the sponsor's operational dataset.","Req"
"SENDIG v3.1.1","9","Relationship","SUPPQUAL","QVAL","Data Value","Char","","",,"",,"Result of, response to, or value associated with QNAM. A value for this column is required; no records can be in SUPP-- with a null value for QVAL.","Req"
"SENDIG v3.1.1","10","Relationship","SUPPQUAL","QORIG","Origin","Char","","",,"",,"QORIG is used to indicate the origin of the data. Possible values are COLLECTED, DERIVED, OTHER, and NOT AVAILABLE. See Section 3.2.2.1.","Perm"
"SENDIG v3.1.1","11","Relationship","SUPPQUAL","QEVAL","Evaluator","Char","","",,"",,"Used only for results that are subjective (i.e., assigned by a person or a group). Should be null for records that contain objectively collected or derived data. Some examples include PATHOLOGIST or VETERINARIAN, etc.","Perm"
"SENDIG v3.1.1","1","Relationship","POOLDEF","STUDYID","Study Identifier","Char","","",,"","Identifier","Unique identifier for a study.","Req"
"SENDIG v3.1.1","2","Relationship","POOLDEF","POOLID","Pool Identifier","Char","","",,"","Identifier","Identifier used for pooling subjects to assign a single finding to multiple subjects.","Req"
"SENDIG v3.1.1","3","Relationship","POOLDEF","USUBJID","Unique Subject Identifier","Char","","",,"","Identifier","Identifier used to uniquely identify across all studies for all applications or submissions involving the product.","Req"
