<?xml version="1.0" encoding="UTF-8"?>
<!-- Dataset-XML: Untyped Data Example  --> 
<!-- Built from the SAS XPT files published with the SDTM-MSG (SDTM Metadata Submission Guidelines) V2.0 --> 
<ODM
  xmlns="http://www.cdisc.org/ns/odm/v1.3"
  xmlns:xlink="http://www.w3.org/1999/xlink" 
  xmlns:data="http://www.cdisc.org/ns/Dataset-XML/v1.0"
  FileType="Snapshot"
  ODMVersion="1.3.2"
  data:DatasetXMLVersion="1.0.0"
  FileOID="www.cdisc.org/StudyMSGv2/1/Define-XML_2.1.0(IG.IE).Data(IE)"
  PriorFileOID="www.cdisc.org/StudyMSGv2/1/Define-XML_2.1.0"
  CreationDateTime="2020-08-21T09:21:13"
  Originator="CDISC MSG Team"
  SourceSystem="M.Hungria-System"
  SourceSystemVersion="2.1-A1"
  >
  <ClinicalData
    StudyOID="cdisc.com/CDISCPILOT01"
    MetaDataVersionOID="MDV.MSGv2.0.SDTMIG.3.3.SDTM.1.7">
    <!-- Dataset (IE) -->
    <ItemGroupData ItemGroupOID="IG.IE" data:ItemGroupDataSeq="1">
      <ItemData ItemOID="IT.IE.STUDYID" Value="CDISCPILOT01"/>
      <ItemData ItemOID="IT.IE.DOMAIN" Value="IE"/>
      <ItemData ItemOID="IT.IE.USUBJID" Value="CDISC015"/>
      <ItemData ItemOID="IT.IE.IESEQ" Value="1"/>
      <ItemData ItemOID="IT.IE.IETESTCD" Value="INCL03"/>
      <ItemData ItemOID="IT.IE.IETEST" Value="MMSE score of 10 to 23."/>
      <ItemData ItemOID="IT.IE.IECAT" Value="INCLUSION"/>
      <ItemData ItemOID="IT.IE.IEORRES" Value="N"/>
      <ItemData ItemOID="IT.IE.IESTRESC" Value="N"/>
      <ItemData ItemOID="IT.IE.EPOCH" Value="SCREENING"/>
      <ItemData ItemOID="IT.IE.IEDTC" Value="2014-03-17"/>
    </ItemGroupData>
  </ClinicalData>
</ODM>
