<?xml version="1.0" encoding="UTF-8"?>
<!-- Dataset-XML: Untyped Data Example  --> 
<!-- Built from the SAS XPT files published with the SDTM-MSG (SDTM Metadata Submission Guidelines) V2.0 --> 
<ODM
  xmlns="http://www.cdisc.org/ns/odm/v1.3"
  xmlns:xlink="http://www.w3.org/1999/xlink" 
  xmlns:data="http://www.cdisc.org/ns/Dataset-XML/v1.0"
  FileType="Snapshot"
  ODMVersion="1.3.2"
  data:DatasetXMLVersion="1.0.0"
  FileOID="www.cdisc.org/StudyMSGv2/1/Define-XML_2.1.0(IG.RELREC).Data(RELREC)"
  PriorFileOID="www.cdisc.org/StudyMSGv2/1/Define-XML_2.1.0"
  CreationDateTime="2020-08-21T09:21:13"
  Originator="CDISC MSG Team"
  SourceSystem="M.Hungria-System"
  SourceSystemVersion="2.1-A1"
  >
  <ClinicalData
    StudyOID="cdisc.com/CDISCPILOT01"
    MetaDataVersionOID="MDV.MSGv2.0.SDTMIG.3.3.SDTM.1.7">
    <!-- Dataset (RELREC) -->
    <ItemGroupData ItemGroupOID="IG.RELREC" data:ItemGroupDataSeq="1">
      <ItemData ItemOID="IT.RELREC.STUDYID" Value="CDISCPILOT01"/>
      <ItemData ItemOID="IT.RELREC.RDOMAIN" Value="AE"/>
      <ItemData ItemOID="IT.RELREC.IDVAR" Value="AELNKID"/>
      <ItemData ItemOID="IT.RELREC.RELTYPE" Value="ONE"/>
      <ItemData ItemOID="IT.RELREC.RELID" Value="AEDS"/>
    </ItemGroupData>
    <ItemGroupData ItemGroupOID="IG.RELREC" data:ItemGroupDataSeq="2">
      <ItemData ItemOID="IT.RELREC.STUDYID" Value="CDISCPILOT01"/>
      <ItemData ItemOID="IT.RELREC.RDOMAIN" Value="DS"/>
      <ItemData ItemOID="IT.RELREC.IDVAR" Value="DSLNKID"/>
      <ItemData ItemOID="IT.RELREC.RELTYPE" Value="ONE"/>
      <ItemData ItemOID="IT.RELREC.RELID" Value="AEDS"/>
    </ItemGroupData>
    <ItemGroupData ItemGroupOID="IG.RELREC" data:ItemGroupDataSeq="3">
      <ItemData ItemOID="IT.RELREC.STUDYID" Value="CDISCPILOT01"/>
      <ItemData ItemOID="IT.RELREC.RDOMAIN" Value="AE"/>
      <ItemData ItemOID="IT.RELREC.IDVAR" Value="AELNKID"/>
      <ItemData ItemOID="IT.RELREC.RELTYPE" Value="ONE"/>
      <ItemData ItemOID="IT.RELREC.RELID" Value="AEDD"/>
    </ItemGroupData>
    <ItemGroupData ItemGroupOID="IG.RELREC" data:ItemGroupDataSeq="4">
      <ItemData ItemOID="IT.RELREC.STUDYID" Value="CDISCPILOT01"/>
      <ItemData ItemOID="IT.RELREC.RDOMAIN" Value="DD"/>
      <ItemData ItemOID="IT.RELREC.IDVAR" Value="DDLNKID"/>
      <ItemData ItemOID="IT.RELREC.RELTYPE" Value="ONE"/>
      <ItemData ItemOID="IT.RELREC.RELID" Value="AEDD"/>
    </ItemGroupData>
    <ItemGroupData ItemGroupOID="IG.RELREC" data:ItemGroupDataSeq="5">
      <ItemData ItemOID="IT.RELREC.STUDYID" Value="CDISCPILOT01"/>
      <ItemData ItemOID="IT.RELREC.RDOMAIN" Value="AE"/>
      <ItemData ItemOID="IT.RELREC.IDVAR" Value="AELNKID"/>
      <ItemData ItemOID="IT.RELREC.RELTYPE" Value="ONE"/>
      <ItemData ItemOID="IT.RELREC.RELID" Value="AEFA"/>
    </ItemGroupData>
    <ItemGroupData ItemGroupOID="IG.RELREC" data:ItemGroupDataSeq="6">
      <ItemData ItemOID="IT.RELREC.STUDYID" Value="CDISCPILOT01"/>
      <ItemData ItemOID="IT.RELREC.RDOMAIN" Value="FA"/>
      <ItemData ItemOID="IT.RELREC.IDVAR" Value="FALNKGRP"/>
      <ItemData ItemOID="IT.RELREC.RELTYPE" Value="MANY"/>
      <ItemData ItemOID="IT.RELREC.RELID" Value="AEFA"/>
    </ItemGroupData>
  </ClinicalData>
</ODM>
