Pinnacle 21 ID;Publisher ID;Message;Description;Category;Severity
CT2001;FDAB017, CG0085, CG0131, CG0232, CG0233, CG0234, CG0235, CG0387, CG0388, CG0389, CG0390, CG0391, CG0392, CG0393, CG0394, CG0395, CG0396, CG0541, CG0619, CG0653;Variable value not found in non-extensible codelist;Variable must be populated with terms from its CDISC controlled terminology codelist. New terms cannot be added into non-extensible codelists.;Terminology;
CT2002;FDAB017, CG0020, CG0021;Variable value not found in extensible codelist;Variable should be populated with terms from its CDISC controlled terminology codelist. New terms can be added as long as they are not duplicates, synonyms or subsets of existing standard terms.;Terminology;
CT2003;FDAB009;Coded and Decoded values do not have the same Code in CDISC CT;Paired variables such as TEST/TESTCD must be populated using terms with the same Codelist Code value in CDISC control terminology. There is one-to-one relationship between paired variable values defined in CDISC control terminology by Codelist Code value.;Terminology;
CT2004;;Variable value not found in non-extensible codelist when value-level condition occurs;Variable must be populated with terms from its CDISC controlled terminology codelist when its value level condition is met. New terms cannot be added into non-extensible codelists.;Terminology;
CT2005;CG0020, CG0021;Variable value not found in extensible codelist when value-level condition occurs;Variable should be populated with terms from its CDISC controlled terminology codelist when its value level condition is met. New terms can be added as long as they are not duplicates, synonyms or subsets of existing standard terms.;Terminology;
CT2006;FDAB009;Coded and Decoded values do not have the same Code in CDISC CT when value-level condition occurs;Paired variables such as TEST/TESTCD must be populated using terms with the same Codelist Code value in CDISC control terminology. There is one-to-one relationship between paired variable values defined in CDISC control terminology by Codelist Code value within the same value level condition.;Terminology;
DD0101;eCTD 1736;Missing define.xml file;Guidance provided by regulatory agencies states that eCTD submissions must include a define.xml file for each study in Module 4 (nonclinical) and Module 5 (clinical). Note: Refer to the data standards catalog by the relevant Regulatory Agency for acceptance of standards and their versions.;Presence;Reject
SD0001;CG0408;No records in data source;Domain table should have at least one record.;Presence;
SD0002;CG0014, CG0208;Null value in variable marked as Required;Required variables (where Core attribute is 'Req') cannot be null for any records.;Presence;
SD0003;;Invalid ISO 8601 value for variable;Value of Dates/Time variables (*DTC) must conform to the ISO 8601 international standard.;Format;
SD0004;CG0413;Inconsistent value for DOMAIN;Domain Abbreviation (DOMAIN) variable should be consistent with the name of the dataset.;Consistency;
SD0005;CG0028;Duplicate value for --SEQ variable;The value of Sequence Number (--SEQ) variable must be unique for each record within a domain and within each Unique Subject Identifier (USUBJID) or Pool Identifier (POOLID) variables value when they are present in the domain. Exclusions are DE, DO, DT, DU, and DX domains.;Consistency;
SD0006;TCG 4.1.4.1;No baseline flag record in Domain for subject;All subjects should have at least one baseline observation (--BLFL = 'Y') in EG, LB, MB, MS, PC and VS domains, except for subjects who failed screening (ARMCD = 'SCRNFAIL') or were not fully assigned to an Arm (ARMCD = 'NOTASSGN') or were not treated (ACTARMCD = 'NOTTRT').;Presence;
SD0007;FDAB030;Inconsistent value for Standard Units;Standard Units (--STRESU) must be consistent for all records with the same Short Name of Measurement, Test or Examination (--TESTCD), Object of the Observation (--OBJ), Measurement Test, or Examination Detail (--TSTDTL), Category (--CAT), Specimen Type (--SPEC), Method of Test or Examination (--METHOD), and Marker String (--MRKSTR).;Consistency;
SD0008;FDAB003, CG0379;Value for --DECOD not found in MedDRA dictionary;Value for the Dictionary-Derived Term (--DECOD) variable must be populated using a Preferred Term of the MedDRA dictionary of a version specified in the define.xml (Case-insensitive).;Terminology;
SD0008C;FDAB017;Value for --DECOD is in incorrect case;Case for the Dictionary-Derived Term (--DECOD) variable must be sentence case using a Preferred Term of the MedDRA dictionary of a version specified in the define.xml (Case-sensitive).;Terminology;
SD0009;;No qualifiers set to 'Y' when AE is Serious;When Serious Event (AESER) variable value is 'Y', then at least one of seriousness criteria variables is expected to have value 'Y' (Involves Cancer (AESCAN), Congenital Anomaly or Birth Defect (AESCONG), Persist or Signif Disability/Incapacity (AESDISAB), Results in Death (AESDTH), Requires or Prolongs Hospitalization (AESHOSP), Is Life Threatening (AESLIFE), or Other Medically Important Serious Event (AESMIE)).;Consistency;
SD0012;FDAB034;--STDY is after --ENDY;Study Day of Start of Event, Exposure or Observation (--STDY) must be less or equal to Study Day of End of Event, Exposure or Observation (--ENDY).;Limit;
SD0013;FDAB034;--STDTC is after --ENDTC;Start Date/Time of Event, Exposure or Observation (--STDTC) must be less or equal to End Date/Time of Event, Exposure or Observation (--ENDTC).;Limit;
SD0014;FDAB040;Negative value for --DOSE;Non-missing Dose (--DOSE) value must be greater than or equal to 0.;Limit;
SD0015;FDAB040;Negative value for --DUR;Non-missing Duration of Event, Exposure or Observation (--DUR) value must be greater than or equal to 0.;Limit;
SD0016;CG0397;Missing value for --STRESC when --DRVFL='Y';Character Result/Finding in Std Format (--STRESC) value should not be null when Derived Flag (--DRVFL) value is 'Y'.;Consistency;
SD0017;CG0406;Invalid value for --TEST variable;The value of Name of Measurement, Test or Examination (--TEST) should be no more than 40 characters in length.;Format;
SD0018;CG0372;Invalid value for --TESTCD variable;The value of a Short Name of Measurement, Test or Examination (--TESTCD) variable should be limited to 8 characters, cannot start with a number, and cannot contain characters other than letters in upper case, numbers, or underscores.;Format;
SD0019;CG0258;Invalid value for --PARM variable;The value of Parameter (--PARM) variable should be no more than 40 characters in length.;Format;
SD0020;CG0257;Invalid value for --PARMCD variable;The value of Parameter Short Name (--PARMCD) variables should be no more than 8 characters in length.;Format;
SD0021;FDAB038;Missing End Time-Point value;One End Time-Point variable is expected to be populated when an event or an intervention occurred. (E.g., End Date/Time of Event or Intervention (--ENDTC), or End Relative to Reference Period (--ENRF), or End Relative to Reference Period (--ENRTPT) should not be missing, or Occurrence (--OCCUR) = 'N' or Completion Status (--STAT) != '') or Duration (--DUR) != '').;Consistency;
SD0022;FDAB038;Missing Start Time-Point value;One Start Time-Point variable is expected to be populated when an event or intervention occurred. (E.g., Start Date/Time of Event or Intervention (--STDTC), or Start Relative to Reference Period (--STRF), or Start Relative to Reference Period (--STRTPT) should not be missing, or Occurrence (--OCCUR) = 'N' or Completion Status (--STAT) != '').;Consistency;
SD0023;CG0094;Missing value for --STAT when --REASND is provided;Completion Status (--STAT) should be set to 'NOT DONE' when Reason Not Done (--REASND) is populated.;Consistency;
SD0024;FDAB043;Missing value for --DTC when --ENDTC is provided;Date/Time of Collection (--DTC) should not be null when End Date/Time of Observation (--ENDTC) is not null.;Consistency;
SD0025;FDAB034;--DTC is after --ENDTC;Date/Time of Specimen Collection (--DTC) must be less or equal to End Date/Time of Specimen Collection (--ENDTC).;Limit;
SD0026;;Missing value for --ORRESU when --ORRES is provided;Original Units (--ORRESU) should not be null when Result or Finding in Original Units (--ORRES) is provided is a numeric result.;Consistency;
SD0027;;Missing value for --ORRES when --ORRESU is provided;Result or Finding in Original Units (--ORRES) should not be null when Original Units (--ORRESU) is provided.;Consistency;
SD0028;FDAB039;Value for --STNRHI is less than value for --STNRLO;Reference Range Upper Limit-Std Units (--STNRHI) value must be greater than or equal to Reference Range Lower Limit-Std Units (--STNRLO) value.;Limit;
SD0029;CG0425;Missing value for --STRESU when --STRESC is provided;Standard Units (--STRESU) should not be null when Character Result/Finding in Std Units (--STRESC) is provided as a numeric result.;Consistency;
SD0030;CG0426;Missing value for --STRESC when --STRESU is provided;Character Result/Finding in Std Units (--STRESC) should not be null when Standard Units (--STRESU) is provided.;Consistency;
SD0031;FDAB043;Missing values for --STDTC, --STRF and --STRTPT when --ENDTC, --ENRF or --ENRTPT is provided;Start Date/Time of Observation (--STDTC), Start Relative to Reference Period (--STRF) or Start Relative to Reference Time Point (--STRTPT) should not be null when End Date/Time of Observation (--ENDTC), End Relative to Reference Period (--ENRF) or End Relative to Reference Time Period (--ENRTPT) is not null.;Consistency;
SD0032;;Missing value for --TPT when --TPTNUM is provided;Planned Time Point Name (--TPT) should not be null when Planned Time Point Number (--TPTNUM) is populated.;Consistency;
SD0033;;Missing value for --TPTNUM when --TPT is provided;Planned Time Point Number (--TPTNUM) should not be null when Planned Time Point Name (--TPT) is populated.;Consistency;
SD0034;CG0008;Missing value for --TPTREF when --ELTM is provided;Time Point Reference (--TPTREF) should not be null when Planned Elapsed Time from Time Point Ref (--ELTM) is populated.;Consistency;
SD0035;CG0114;Missing value for --DOSU when --DOSE, --DOSTXT or --DOSTOT is provided;Dose Units (--DOSU) must be populated when Dose per Administration (--DOSE), Dose Description (--DOSTXT) or Total Daily Dose (--DOSTOT) is provided.;Consistency;
SD0036;CG0397;Missing value for --STRESC when --ORRES is provided;Character Result/Finding in Std Units (--STRESC) must be populated when Result or Finding in Original Units (--ORRES) is provided.;Consistency;
SD0037;TCG 4.1.4.5;Value for variable not found in user-defined codelist;Variable values should be populated with terms found in the user-defined codelist associated with the variable in define.xml.;Terminology;
SD0038;;Value of Study Day variable equals 0;Study Day variables (*DY) value should not equal 0.;Limit;
SD0040;FDAB009;Inconsistent value for --TEST within --TESTCD;All values of Name of Measurement, Test or Examination (--TEST) should be the same for a given value of Short Name of Measurement, Test or Examination (--TESTCD).;Consistency;
SD0041;CG0089;Value for --OCCUR is populated for unsolicited Intervention or Event;Occurrence (--OCCUR) may only be populated when a given Intervention or Event has been pre-specified (--PRESP = 'Y').;Consistency;
SD0042;CG0081, CG0086, CG0404;--STAT does not equal 'NOT DONE' when --PRESP='Y' and --OCCUR is null;When no response is provided for Occurrence (--OCCUR) for a pre-specified Intervention or Event (--PRESP = 'Y'), then Status (--STAT) should be set to 'NOT DONE'.;Consistency;
SD0043;CG0423;Missing value for --TRTV when --VAMT is not null;Treatment Vehicle (--TRTV) should be provided when Treatment Vehicle Amount (--VAMT) is specified.;Consistency;
SD0044;;Missing value for --VAMTU when --VAMT is populated;Treatment Vehicle Amount Units (--VAMTU) should not be null when Treatment Vehicle Amount (--VAMT) is populated.;Consistency;
SD0045;CG0427;Missing value for --STRESC when --RESCAT is populated;Character Result/Finding in Std Units (--STRESC) should be provided when Result Category (--RESCAT) is specified.;Consistency;
SD0046;FDAB009;Inconsistent value for QLABEL within QNAM;All values of Qualifier Variable Label (QLABEL) should be the same for a given value of Qualifier Variable Name (QNAM).;Consistency;
SD0047;CG0348;Missing value for --ORRES when --STAT or --DRVFL is not populated;Status (--STAT) should be set to 'NOT DONE' or Derived Flag (--DRVFL) should have a value of 'Y' when Result or Finding in Original Units (--ORRES) is null.;Consistency;
SD0049;FDAB044, CG0061;Missing value for --STTPT when --STRTPT is populated;Start Reference Time Point (--STTPT) must not be null when Start Relative to Reference Time Point (--STRTPT) is provided.;Consistency;
SD0050;FDAB044, CG0046;Missing value for --ENTPT when --ENRTPT is populated;End Reference Time Point (--ENTPT) must not be null when End Relative to Reference Time Point (--ENRTPT) is provided.;Consistency;
SD0051;CG0035;Inconsistent value for VISIT within VISITNUM;All values of Visit Name (VISIT) should be the same for a given value of Visit Number (VISITNUM).;Consistency;
SD0052;CG0035;Inconsistent value for VISITNUM within VISIT;All values of Visit Number (VISITNUM) should be the same for a given value of Visit Name (VISIT).;Consistency;
SD0054;TCG 4.1.4.5;Variable in define.xml is not present in the dataset;Variables listed in the data definition document (define.xml) should be included in the dataset.;Metadata;
SD0055;CG0012;SDTM/dataset variable type mismatch;Variable Data Types in the dataset should match the variable data types described in SDTM.;Metadata;
SD0056;CG0014, CG0313;SDTM Required variable not found;Variables described in SDTM IG as Required must be included in the dataset.;Metadata;
SD0057;CG0016;SDTM Expected variable not found;Variables described in SDTM IG as Expected should be included in the dataset.;Metadata;
SD0058;CG0013, CG0533, CG0542, CG0564, CG0565, CG0566, CG0567;Variable appears in dataset, but is not in SDTM model;Only variables listed in SDTM model should appear in a dataset. New sponsor defined variables must not be added, and existing variables must not be renamed or modified.;Metadata;
SD0059;TCG 4.1.4.5;Define.xml/dataset variable type mismatch;Variable DataType in define.xml must match variable Type in dataset. Define-XML data types of 'integer' and 'float' match dataset type of 'Num', all other match 'Char'.;Metadata;
SD0060;TCG 4.1.4.5;Variable in dataset is not present in define.xml;Variables included in the dataset must be described in the data definition document (define.xml).;Metadata;
SD0061;TCG 4.1.4.5;Domain referenced in define.xml, but dataset is missing;Domains referenced in data definition document (define.xml) should be included in the submission.;Metadata;
SD0062;TCG 3.3.1;Incompatible data source;Domain table must have a valid format (e.g., SAS transport (XPORT) v.5 or text-delimited).;Format;
SD0064;CG0029;Subject is not present in DM domain;All Subjects (USUBJID) must be present in Demographics (DM) domain.;Cross-reference;
SD0065;CG0034;USUBJID/VISIT/VISITNUM values do not match SV domain data;All Unique Subject Identifier (USUBJID) + Visit Name (VISIT) + Visit Number (VISITNUM) combination values in data should be present in the Subject Visits (SV) domain. There is an exception for records, where Status (--STAT) variable value is populated. E.g., --STAT = 'NOT DONE'. Another exception is for records, where Occurrence (ECOCCUR) is 'N' in EC domain.;Cross-reference;
SD0066;CG0126, CG0293;Invalid ARMCD;Planned Arm Code (ARMCD) values should match entries in the Trial Arms (TA) dataset, except for subjects who failed screening (ARMCD = 'SCRNFAIL') or were not fully assigned to an Arm (ARMCD = 'NOTASSGN').;Cross-reference;
SD0067;CG0414;Invalid ETCD;Element Code (ETCD) values should match entries in the Trial Elements (TE) dataset, except for unplanned Element (ETCD = 'UNPLAN').;Cross-reference;
SD0068;CG0179;IETESTCD value doesn't exist in TI domain;A value for Inclusion/Exclusion Criterion Short Name (IETESTCD) must be present the Trial Inclusion/Exclusion Criteria (TI) domain.;Cross-reference;
SD0070;FDAB023, CG0109;No Exposure record found for subject;All Demographics (DM) subjects (USUBJID) participating in a study that includes investigational product should have at least one record in the Exposure (EX) domain, except for subjects who failed screening (ARMCD = 'SCRNFAIL'), were not fully assigned to an Arm (ARMCD = 'NOTASSGN') or did not receive study treatment (ACTARMCD = 'NOTTRT').;Presence;
SD0071;CG0120, CG0121, CG0128, CG0294, CG0516, CG0518;Invalid ARM/ARMCD;The combination of Description of Planned Arm (ARM) and Planned Arm Code (ARMCD) values must match entries in the Trial Arms (TA) dataset, except for subjects who failed screening (ARMCD = 'SCRNFAIL') or were not fully assigned to an Arm (ARMCD = 'NOTASSGN').;Cross-reference;
SD0072;CG0334, CG0369, CG0373, CG0374;Invalid RDOMAIN;Related Domain Abbreviation (RDOMAIN) must have a valid value of Domains included in the study data.;Consistency;
SD0075;CG0370;Invalid IDVAR;Identifying Variable (IDVAR) must have a valid value of variables from a referenced Domain.;Consistency;
SD0077;CG0371;Invalid referenced record;Reference record defined by Related Domain Abbreviation (RDOMAIN), Unique Subject Identifier (USUBJID), Identifying Variable (IDVAR) and Identifying Variable Value (IDVARVAL) must exist in the target Domain.;Cross-reference;
SD0079;FDAB023;EX record is present when subject is not assigned to an arm;Subjects that are not assigned to an Arm (ARMCD='NOTASSGN') or are screen failures (ARMCD='SCRNFAIL'), or ARM=null, should not have any Exposure records. Run-in records (EPOCH='RUN-IN') are excluded from firing for this validation rule.;Consistency;
SD0080;FDAB034;AE start date is after the latest Disposition date;Start Date/Time of Adverse Event (AESTDTC) should be less than or equal to the Start Date/Time of the latest Disposition Event (DSSTDTC). Investigator should provide a date of study discontinuation for each subject in Disposition (DS) domain. If the study is ongoing, Parameter Value (TSVAL) for the 'ONGOSIND/Ongoing Study Indicator' parameter should be set to 'Y' in the Trial Summary (TS) domain.;Consistency;
SD0082;FDAB034;Exposure end date is after the latest Disposition date;End Date/Time of Treatment (EXENDTC) should be less than or equal to the Start Date/Time of the latest Disposition Event (DSSTDTC). Investigator should provide a date of study discontinuation for each subject in Disposition (DS) domain. If the study is ongoing, Parameter Value (TSVAL) for the 'ONGOSIND/Ongoing Study Indicator' parameter should be set to 'Y' in the Trial Summary (TS) domain.;Consistency;
SD0083;CG0151;Duplicate USUBJID in DM within STUDYID;The value of Unique Subject Identifier (USUBJID) variable must be unique for each subject across all trials in the submission. In the Demographics (DM) domain, there should only be one record per subject.;Consistency;
SD0084;FDAB040;Negative or zero value for AGE;The value of Age (AGE) cannot be less than or equal to 0.;Limit;
SD0085;CG0177;Mismatch between IEORRES and IESTRESC values;I/E Criterion Original Result (IEORRES) and I/E Criterion Result in Std Format (IESTRESC) should have the same value.;Consistency;
SD0086;CG0411;SUPPQUAL duplicate records;All SUPPQUAL Domains records are associated with a single parent record and must have a unique combination of Study Identifier (STUDYID), Unique Subject Identifier (USUBJID), Identifying Variable (IDVAR), Identifying Variable Value (IDVARVAL) and Qualifier Variable Name (QNAM) variable value. For all SUPPQUAL domain record all The QNAM variable should be unique for each parent record.;Consistency;
SD0087;CG0146, CG0532;RFSTDTC is not provided for a randomized subject;Subject Reference Start Date/Time (RFSTDTC) should be populated for all randomized subjects, those where Planned Arm Code (ARMCD) is not equal to 'SCRNFAIL' or 'NOTASSGN' or null.;Consistency;
SD0088;CG0529;RFENDTC is not provided for a randomized subject;Subject Reference End Date/Time (RFENDTC) should be populated for all randomized subjects, those where Planned Arm Code (ARMCD) is not equal to 'SCRNFAIL' or 'NOTASSGN' or null. If the study is ongoing, Parameter Value (TSVAL) for the 'ONGOSIND/Ongoing Study Indicator' parameter should be set to 'Y' in the Trial Summary (TS) domain.;Consistency;
SD0089;CG0328, CG0329;Missing values for TEENRL and TEDUR;At least one of Rule for End of Element (TEENRL) or Planned Duration of Element (TEDUR) should be populated.;Consistency;
SD0090;;AESDTH is not 'Y' when AEOUT='FATAL';Results in Death (AESDTH) should equal 'Y' when Outcome of Adverse Event (AEOUT) is 'FATAL'.;Consistency;
SD0091;;AEOUT is not 'FATAL' when AESDTH='Y';Outcome of Adverse Event should equal 'FATAL' when Results in Death (AESDTH) is 'Y'.;Consistency;
SD0092;CG0211;Missing value for SEUPDES when ETCD='UNPLAN';Description of Unplanned Element (SEUPDES) should be populated when subject's experience for a particular period of time is represented as an unplanned Element, where Element Code (ETCD) is equal to 'UNPLAN'.;Consistency;
SD0095;;Invalid usage of SUPPQUAL for non-general-observation-class Domain;Supplemental Qualifiers special purpose dataset (SUPP--) can only be used to capture non-standard variables and their association to parent records in general-observation-class datasets (Events, Findings, Interventions) and Demographics. Another exception is Subject Visits domain in SDTM-IG prior v3.4.;Presence;
SD1001;CG0150;SUBJID is not unique for each subject within study;The value of Subject Identifier for the Study (SUBJID) variable must be unique for each subject within the study.;Consistency;
SD1002;FDAB034;RFSTDTC is after RFENDTC;Subject Reference Start Date/Time (RFSTDTC) must be less than or equal to Subject Reference End Date/Time (RFENDTC).;Limit;
SD1004;CG0153, CG0296, CG0297, CG0415;Invalid value for ARMCD exceeding 20 characters;The value of Planned Arm Code (ARMCD) should be no more than 20 characters in length.;Format;
SD1005;CG0409;Invalid STUDYID;Study Identifier (STUDYID) values must match the STUDYID in Demographics (DM) domain.;Consistency;
SD1008;CG0168;CODTC is populated when comment is a child record of another domain;The value of Date/Time of Comment (CODTC) should be null when comments are related to a specific parent record or group of parent records in a domain (RDOMAIN, IDVAR and IDVARVAL are populated).;Consistency;
SD1009;CG0246;Invalid value for ETCD;The value of Element Code (ETCD) should be no more than 8 characters in length.;Format;
SD1010;CG0152;ELEMENT value is populated when ETCD= 'UNPLAN';Description of Element (ELEMENT) should be null when subject's experience for a particular period of time is represented as an unplanned Element, where Element Code (ETCD) is equal to 'UNPLAN'.;Consistency;
SD1011;;Invalid ISO 8601 value for variable;Value of Duration, Elapsed Time, and Interval variables (--DUR, --ELTM, --EVLINT, --STINT, --ENINT, TDSTOFF, TDTGTPAI, TDMINPAI, TDMAXPAI) must conform to the ISO 8601 international standard.;Format;
SD1012;;Invalid ETCD/ELEMENT;The combination of Element Code (ETCD) and Description of Element (ELEMENT) values should match entries in the Trial Elements (TE) dataset, except for unplanned Element (ETCD = 'UNPLAN').;Cross-reference;
SD1013;CG0206;TAETORD is populated, ETCD = 'UNPLAN';Planned Order of Elements within Arm (TAETORD) should be null when subject's experience for a particular period of time is represented as an unplanned Element (ETCD = 'UNPLAN').;Consistency;
SD1014;CG0418;Invalid TAETORD;Order of Element within Arm (TAETORD) values should match entries in the Trial Arms (TA) dataset.;Cross-reference;
SD1015;CG0009;EPOCH is not in TA.EPOCH;Epoch (EPOCH) values should match entries in the Trial Arms (TA) dataset.;Cross-reference;
SD1016;CG0178;IETESTCD/IETEST/IECAT values do not exist in TI domain;The combination of Inclusion/Exclusion Criterion Short Name (IETESTCD), Criterion (IETEST), and Category (IECAT) values should match entries in the Trial Inclusion/Exclusion Criteria (TI) dataset.;Cross-reference;
SD1017;CG0213;VISITNUM value does not match TV domain data;Visit Number (VISITNUM) values should match entries in the Trial Visits (TV) dataset when they are planned visits (SVUPDES = null).;Cross-reference;
SD1018;CG0215;VISITNUM/VISIT/VISITDY values do not match TV domain data;The combination of Visit Number (VISITNUM), Visit Name (VISIT), and Planned Study Day of Visit (VISITDY) values should match entries in the Trial Visits (TV) dataset when they are planned visits (SVUPDES = null).;Cross-reference;
SD1019;CG0216;VISITDY is populated for unplanned visit;Planned Study Day of Visit (VISITDY) should equal null for unplanned visits, where Description of Unplanned Visit (SVUPDES) is populated.;Consistency;
SD1020;eCTD 1736, CG0368;Missing DM dataset;Demographics (DM) dataset must be included in every submission.;Presence;Reject
SD1021;FDAB015;Unexpected character value in variable;Character values should not have leading space ' ' characters, carriage returns, or '.' as an entire value. The only exceptions are COVALn and TSVALn variables.;Format;
SD1022;CG0417;Invalid value for QNAM variable;The value of Qualifier Variable Name (QNAM) should be limited to 8 characters, cannot start with a number, and cannot contain characters other than letters in upper case, numbers, or underscores.;Format;
SD1023;;VISIT/VISITNUM values do not match TV domain data;Combination of Visit Name (VISIT) and Visit Number (VISITNUM) in subject-level domains should match that in the TV domain except for Unscheduled and Unplanned visits.;Cross-reference;
SD1026;CG0419;Invalid value for RELTYPE variable;Relationship Type (RELTYPE) must be null when Identifying Variable (IDVAR) is populated with a --SEQ value.;Consistency;
SD1027;CG0154;Non-unique value for ELEMENT within ETCD;Description of Element (ELEMENT) must have a unique value for a given value of Element Code (ETCD) within the domain.;Consistency;
SD1029;TCG 3.3.5;Non-ASCII or non-printable characters in variable;Variables value must not include non-ASCII or non-printable characters (outside of 32-126 ASCII code range), limited to variables which values may be converted into new variable name or label (--TEST, --TESTCD, --PARM, --PARMCD, QLABEL, QNAM).;Format;
SD1030;CG0226, CG0227;Value for --STRF is populated when RFSTDTC is null;Start Relative to Reference Period (--STRF) should not be populated for subjects with missing value for Reference Start Date/Time (RFSTDTC).;Consistency;
SD1031;;Value for --ENRF is populated when RFENDTC is null;End Relative to Reference Period (--ENRF) should not be populated for subjects with missing value for Reference End Date/Time (RFENDTC).;Consistency;
SD1033;FDAB009;Inconsistent value for ARM;A value for Description of Planned Arm (ARM) must have a unique value for Planned Arm Code (ARMCD) with the domain.;Consistency;
SD1034;FDAB009;Inconsistent value for ARMCD;A value for Planned Arm Code (ARMCD) must have a unique value for Description of Planned Arm (ARM) with the domain.;Consistency;
SD1035;FDAB014;Missing value for DSCAT;Category for Disposition Event (DSCAT) should be populated.;Presence;
SD1036;CG0428;Missing value for --TOXGR when --TOX is populated;Toxicity Grade (--TOXGR) should be provided when Toxicity (--TOX) is populated.;Consistency;
SD1037;;Missing value for --TOX when --TOXGR is populated;A value for a Toxicity (--TOX) variable should be provided when a Toxicity Grade (--TOXGR) variable value is populated and greater than 0.;Consistency;
SD1038;CG0268;Non-unique value for TSSEQ variable within TSPARMCD;Sequence Number (TSSEQ) must have a unique value for a given value of Trial Summary Parameter Short Name (TSPARMCD) within the domain.;Consistency;
SD1039;CG0077, CG0336, CG0337;--CAT value is redundant with other variable values;"Value of Category (--CAT) should not be identical to that in Domain Abbreviation (DOMAIN); Reported Term (--TERM); Name of Measurement, Test, or Examination (--TESTCD); Name of Treatment (--TRT); Standardized Coded Term (--DECOD); Body System or Organ Class (--BODSYS).";Consistency;
SD1040;CG0338, CG0339, CG0340, CG0350;--SCAT value is redundant with other variable values;"Value of Subcategory (--SCAT) should not be identical to that in Domain Abbreviation (DOMAIN); Reported Term (--TERM); Name of Measurement, Test, or Examination (--TESTCD); Name of Treatment (--TRT); Standardized Coded Term (--DECOD); Body System or Organ Class (--BODSYS).";Consistency;
SD1041;CG0027;Values for --CAT and --SCAT are identical;Values of Category (--CAT) and Subcategory (--SCAT) variables should not be identical.;Consistency;
SD1042;CG0420, CG0421;Time point for non-occurred event or intervention is provided;Value of Start Relative to Reference Period (--STRF) or End Relative to Reference Period (--ENRF) should not be populated when an event or intervention is marked as not occurred (--OCCUR='N').;Consistency;
SD1043;FDAB009;Inconsistent value for --TESTCD within --TEST;All values of Short Name of Measurement, Test or Examination (--TESTCD) should be the same for a given value of Name of Measurement, Test or Examination (--TEST).;Consistency;
SD1045;CG0175;IESTRESC is not 'Y' when IECAT ='EXCLUSION';I/E Criterion Original Result (IEORRES) must equal 'Y' when Inclusion/Exclusion Category (IECAT) is 'EXCLUSION'.;Consistency;
SD1046;CG0176;IESTRESC is not 'N' when IECAT ='INCLUSION';I/E Criterion Original Result (IEORRES) must equal 'N' when Inclusion/Exclusion Category (IECAT) is 'INCLUSION'.;Consistency;
SD1047;CG0110, CG0111;Both --DOSE and --DOSTXT values are populated;Only one of Dose (--DOSE) or Dose Description (--DOSTXT) variables must be populated on the same record.;Consistency;
SD1049;CG0416;Invalid value for QLABEL;Qualifier Variable Label (QLABEL) value may have up to 40 characters.;Format;
SD1050;FDAB009;Non-unique value for ETCD within ELEMENT;Element Code (ETCD) must have a unique value for a given value of Description of Element (ELEMENT) within the domain.;Consistency;
SD1051;;Unexpected value for IDVAR/IDVARVAL;Both Identifying Variable (IDVAR) and Identifying Variable Value (IDVARVAL) should not be populated when relating information to the Demographics (DM) domain.;Consistency;
SD1052;CG0247;Non-unique value for TAETORD within ARMCD;Order of Element within Arm (TAETORD) must have a unique value for a given value of Planned Arm Code (ARMCD) within the domain.;Consistency;
SD1053;CG0244;Unexpected value for ARMCD variable;Records for subjects who failed a screening or were not assigned to study treatment (ARMCD is 'SCRNFAIL' or 'NOTASSGN') should not be included in the Trial Arms (TA) or Trial Visits (TV) datasets.;Consistency;
SD1060;CG0410;Duplicate VISITNUM;The value of Visit Number (VISITNUM) variable should be unique for each record within a subject.;Consistency;
SD1061;CG0191;Missing MB dataset when MS dataset is present;Microbiology Specimen (MB) dataset should be included when a Microbiology Susceptibility Test (MS) dataset is present.;Presence;
SD1062;CG0041, CG0042;AESER is not 'Y' when AESOD equals 'Y';Serious Event (AESER) variable value is expected to be 'Y' when Occurred with Overdose (AESOD) variable value equals 'Y'.;Consistency;
SD1063;TCG 4.1.4.5;Dataset is not present in define.xml;Datasets included in study data must be described in the data definition document (define.xml).;Metadata;
SD1064;FDAB009;Duplicate ETCD value;The value of Element Code (ETCD) variable must be unique within Trial Elements (TE) domain.;Consistency;
SD1065;CG0164;Missing RDOMAIN value when IDVAR is populated;Value of Related Domain Abbreviation (RDOMAIN) variable must be populated when value of Identifying Variable (IDVAR) variable is populated.;Presence;
SD1066;;IDVARVAL value is populated when RELTYPE values is populated;Variable Value (IDVARVAL) variable value should not be populated when Relationship Type (RELTYPE) variable value is populated.;Presence;
SD1067;;USUBJID value is populated when RELTYPE values is populated;Unique Subject Identifier (USUBJID) variable value should not be populated when Relationship Type (RELTYPE) variable value is populated.;Presence;
SD1068;FDAB009;Duplicate ELEMENT value;The value of Element (Description of Element) variable must be unique within Trial Elements (TE) domain.;Consistency;
SD1069;FDAB009, CG0307;Inconsistent value for --PARM within --PARMCD;All values of a Parameter (--PARM) variables should be the same for a given value of a Parameter Short Name (--PARMCD) variables.;Consistency;
SD1070;FDAB009, CG0307;Inconsistent value for --PARMCD within --PARM;All values of a Parameter Short Name (--PARMCD) variables should be the same for a given value of a Parameter (--PARM) variables.;Consistency;
SD1071;FDAB024;Dataset is greater than 5 GB in size;Datasets greater than 5 gigabytes (GB) in size should be split into smaller datasets no larger than 5 GB.;Metadata;
SD1072;CG0163, CG0203;Missing IDVAR value when RDOMAIN value is provided;Value of Identifying Variable (IDVAR) variable must be populated when Related Domain Abbreviation (RDOMAIN) variable value is provided, with the only exception of 'DM' value for RDOMAIN.;Consistency;
SD1073;CG0040, CG0044, CG0301, CG0302, CG0621, CG0659, CG0660;Variable prohibited for use in SDTM;Variables described in IG as inappropriate for usage must be not included in the dataset.;Metadata;
SD1074;CG0352, CG0353, CG0354, CG0355, CG0356, CG0357, CG0358, CG0507, CG0508, CG0509, CG0510, CG0511, CG0552, CG0568, CG0621-44;Variable which can be used only in SEND;Variables designed only for SEND pre-clinical studies must be not included in the SDTM dataset.;Metadata;
SD1075;CG0298, CG0299, CG0300, CG0304, CG0467;Variable not recommended for use;Variables described in IG as not recommended for usage should be not included in the dataset.;Metadata;
SD1076;;Model Permissible variable added into standard domain;SDTM model variable may be added into standard domains according to its domain general class, if there are no restrictions on their usage specified in IG.;Metadata;
SD1077;FDAB022;Regulatory Expected variable not found;Variables requested by the relevant regulatory agency in policy documents should be included in the dataset. E.g., EPOCH.;Metadata;
SD1078;;Permissible variable with missing value for all records;Permissible variable should not be present in domain, when the variable has missing value for all records in the dataset (SDTM-IG 3.1.1 - 3.2). Permissible variable should not be present in domain, when the variable is not present on study CRFs (SDTM-IG 3.3 and higher).;Presence;
SD1079;CG0330, CG0664;Variable is in wrong order within domain;The order of variables should reflect the order of the variables in the SDTM Model. Variables for the three general observation classes must be ordered with Identifiers first, followed by the Topic, Qualifier, and Timing variables. Within each role, variables must be ordered as shown in SDTM: Tables 2.2.1, 2.2.2, 2.2.3, 2.2.4, and 2.2.5.;Metadata;
SD1082;FDAB018, FDAB019;Variable length is too long for actual data;Variable length should be assigned based on actual stored data to minimize file size. Datasets should be re-sized to the maximum length of actual data used prior to splitting.;Metadata;
SD1083;FDAB016;Missing --DY variable when --DTC variable is present;Collection Study Day (--DY) variable should be included into dataset when Collection Study Date/Time (--DTC) variable is present.;Presence;
SD1084;FDAB016, CG0006;--DY variable value is not populated;Collection Study Day (--DY) variable value should be populated when Collection Study Date/Time (--DTC) and Subject Reference Start Date/Time (RFSTDTC) variables values are provided, and both include complete date part.;Presence;
SD1085;CG0007;--DY variable value is imputed;Collection Study Day (--DY) variable value should not be imputed. It may be only populated when both Collection Study Date/Time (--DTC) and Subject Reference Start Date/Time (RFSTDTC) variables values are provided and both include complete date part.;Presence;
SD1086;CG0006;Incorrect value for --DY variable;"Collection Study Day (--DY) variable value should be populated as defined by CDISC standards: --DY = (date portion of --DTC) - (date portion of RFSTDTC) +1 if --DTC is on or after RFSTDTC; --DY = (date portion of --DTC) - (date portion of RFSTDTC) if --DTC precedes RFSTDTC.";Presence;
SD1087;FDAB034;Missing --STDY variable when --STDTC variable is present;Study Day of Start (--STDY) variable should be included into dataset when Start Study Date/Time (--STDTC) variable is present.;Presence;
SD1088;;--STDY variable value is not populated;Study Day of Start (--STDY) variable value should be populated when Start Study Date (--STDTC) and Subject Reference Start Date/Time (RFSTDTC) variables values are provided, and both include complete date part.;Presence;
SD1089;CG0221;--STDY variable value is imputed;Study Day of Start (--STDY) variable value should not be imputed. It may be only populated when both Start Study Date/Time (--STDTC) and Subject Reference Start Date/Time (RFSTDTC) variables values are provided, and both include complete date part.;Presence;
SD1090;CG0220;Incorrect value for --STDY variable;"Study Day of Start (--STDY) variable value should be populated as defined by CDISC standards: --STDY = (date portion of --STDTC) - (date portion of RFSTDTC) +1 if --STDTC is on or after RFSTDTC; --STDY = (date portion of --STDTC) - (date portion of RFSTDTC) if --STDTC precedes RFSTDTC.";Presence;
SD1091;FDAB034;Missing --ENDY variable when --ENDTC variable is present;Study Day of End (--ENDY) variable should be included into dataset when End Study Date/Time (--ENDTC) variable is present.;Presence;
SD1092;;--ENDY variable value is not populated;Study Day of End (--ENDY) variable value should be populated when End Study Date/Time (--ENDTC) and Subject Reference Start Date/Time (RFSTDTC) variables values are provided, and both include complete date part.;Presence;
SD1093;CG0223;--ENDY variable value is imputed;Study Day of End (--ENDY) variable value should not be imputed. It may be only populated when both End Study Date/Time (--ENDTC) and Subject Reference Start Date/Time (RFSTDTC) variables values are provided, and both include complete date part.;Presence;
SD1094;CG0222;Incorrect value for --ENDY variable;"Study Day of End (--ENDY) variable value should be populated as defined by CDISC standards: --ENDY = (date portion of --ENDTC) - (date portion of RFSTDTC) +1 if --ENDTC is on or after RFSTDTC; --ENDY = (date portion of --ENDTC) - (date portion of RFSTDTC) if --ENDTC precedes RFSTDTC.";Presence;
SD1095;;Invalid dataset name for split domain;Split datasets must not have the name of original domain. E.g., lbhm.xpt is a valid name when lb.xpt is not a valid dataset name for split domain.;Consistency;
SD1096;FDAB018;High risk of truncated value for --TERM variable;SAS v5 export format has a limitation on variables length up to 200 characters. If the collected value was more than 200 characters, then SUPPQUAL dataset should be used to store additional 200+ characters. Variable QNAM should have --TERM1, ---TERM2, etc. values for those records. Value splitting should be performed between words or numbers. See SDTM IG #4.1.5.3.2 for details. This risk-assessment check is triggered based on assumption that if original value was truncated, then the actual data value length is exactly 200 characters.;Format;
SD1097;FDAB001;No Treatment Emergent info for Adverse Event;A treatment-emergent flag should be included in SUPPAE according to the FDA business rule that states, 'A treatment-emergent flag should be submitted'.;Presence;
SD1098;CG0429;Missing --CAT value when --SCAT value is populated;Value for Category (--CAT) variable should be populated when value for Subcategory (--SCAT) variable is populated.;Presence;
SD1099;CG0430;Missing --CAT variable when --SCAT variable is present;Category (--CAT) variable should be included into dataset when Subcategory (--SCAT) variable is present.;Presence;
SD1101;CG0058;Missing --ENTPT variable when --ENRTPT variable is present;End Reference Time Point (--ENTPT) variable must be included into the domain when End Relative to Reference Time Point (--ENRTPT) variable is present.;Presence;
SD1102;CG0057;Missing --ENRTPT variable when --ENTPT variable is present;End Relative to Reference Time Point (--ENRTPT) variable must be included into the domain when End Relative Time Point (--ENTPT) variable is present.;Presence;
SD1103;CG0062;Missing --STTPT variable when --STRTPT variable is present;Start Reference Time Point (--STTPT) variable must be included into the domain when Start Relative to Reference Time Point (--STRTPT) variable is present.;Presence;
SD1104;CG0060;Missing --STRTPT variable when --STTPT variable is present;Start Relative to Reference Time Point (--STRTPT) variable must be included into the domain when Start Relative Time Point (--STTPT) variable is present.;Presence;
SD1106;FDAB004;Missing AE dataset;Adverse Events (AE) dataset should be included in every submission.;Presence;
SD1107;FDAB004;Missing LB dataset;Lab Test Results (LB) dataset should be included in every submission.;Presence;
SD1108;FDAB004;Missing VS dataset;Vital Signs (VS) dataset should be included in every submission.;Presence;
SD1109;FDAB004, CG0407;Missing EX dataset;Exposure (EX) dataset should be included in every submission.;Presence;
SD1110;FDAB004;Missing DS dataset;Disposition (DS) dataset should be included in every submission.;Presence;
SD1111;FDAB004;Missing SE dataset;Subject Elements (SE) dataset should be included in every submission.;Presence;
SD1112;FDAB011;Missing TA dataset;Trial Arms (TA) dataset should be included in every submission.;Presence;
SD1113;FDAB011;Missing TE dataset;Trial Elements (TE) dataset should be included in every submission.;Presence;
SD1114;FDAB003, CG0385;Value for --BODSYS not found in MedDRA dictionary;Value for Body System or Organ Class (--BODSYS) variable must be populated using a System Organ Class of the MedDRA dictionary of a version specified in the define.xml (Case-insensitive).;Terminology;
SD1114C;FDAB017;Value for --BODSYS is in incorrect case;Case for Body System or Organ Class (--BODSYS) variable must follow MedDRA sentence case and be populated using a System Organ Class of the MedDRA dictionary of a version specified in the define.xml (Case-sensitive).;Terminology;
SD1115;eCTD 1734;Missing TS dataset;Trial Summary (TS) dataset must be included in every submission.;Presence;Reject
SD1116;FDAB018;Inconsistent variable length within split datasets;Split datasets should have matching variable lengths for future mergers. Datasets should be resized to the maximum length used prior to splitting.;Consistency;
SD1117;;Duplicate records;The structure of Findings class domains should be one record per Finding Result per subject. No Finding Result with the same Test Short Name (--TESTCD) and the same Qualifier variables at the same timepoint for the same Subject (USUBJID) are expected.;Consistency;
SD1118;FDAB038;Neither --STDTC, --DTC nor --STDY are populated;At least one value of three variables Start Date/Time (--STDTC), Collection Date/Time (--DTC) or Start Study Day (--STDY) should be populated.;Presence;
SD1119;;Inappropriate usage of variables in CO domain when comment is a child record of another domain;In the Comments (CO) domain, the following Identifier and Timing variables are Permissible and may be populated as appropriate when comments are not related to other domain records (i.e., RDOMAIN and IDVAR variable values are not populated): COGRPID, COREFID, COSPID, VISIT, VISITNUM, VISITDY, TAETORD, CODY, COTPT, COTPTNUM, COELTM, COTPTREF, CORFTDTC.;Structure;
SD1120;CG0167;Comments in SUPPQUAL domain;Comments should be stored in Comments (CO) domain, rather than be put into Supplemental Qualifier (SUPP--) domains.;Presence;
SD1121;FDAB005;Neither AGE nor AGETXT values are populated;Value for Age (AGE) or Age Range (AGETXT) variables should be populated for all subjects. The only exception for SDTM is for Screen Failures (ARMCD=SCRNFAIL) and Not Assigned (ARMCD=NOTASSGN) subjects, or subjects with ARMCD=null. There are no exceptions for SEND.;Presence;
SD1122;FDAB031;Missing value for --STRESN;Standardized Result in Numeric Format (--STRESN) variable value should be populated when Standardized Result in Character Format (--STRESC) variable value represents a numeric value.;Consistency;
SD1123;FDAB042, CG0422;--ORRES value is populated when --STAT is 'NOT DONE';Value of Original Result (--ORRES) variable is expected to be missing when observation was not performed (Status (--STAT) is 'NOT DONE').;Consistency;
SD1125;CG0240, CG0241;Inconsistent value for --ELTM within --TPT, --TPTREF and/or VISITNUM;All values of Planned Elapsed Time (--ELTM) variable should be the same for a given value of Planned Time Point Name (--TPT) variable, Time Point Reference (--TPTREF) and/or Visit Number (VISITNUM).;Consistency;
SD1126;CG0571, CG0572, CG0573;Inconsistent value for --TPT within --TPTNUM, --TPTREF, VISITNUM;All values of Planned Time Point Name (--TPT) variable should be the same for a given value of Planned Time Point Number (--TPTNUM) variable, Time Point Reference (--TPTREF) variable, and Visit Number (VISITNUM) variable.;Consistency;
SD1127;CG0571, CG0572, CG0573;Inconsistent value for --TPTNUM within --TPT, --TPTREF, VISITNUM;All values of Planned Time Point Number (--TPTNUM) variable should be the same for a given value of Planned Time Point Name (--TPT) variable, Time Point Reference (--TPTREF) variable, and Visit Number (VISITNUM) variable.;Consistency;
SD1128;;Invalid value for RELTYPE variable;Relationship Type (RELTYPE) variable values should be populated with terms 'ONE', 'MANY' when Related Records (RELREC) dataset is used to identify relationships between datasets.;Consistency;
SD1129;FDAB005;Neither AGE nor AGETXT variables are present;At least one of Age (AGE) or Age Text (AGETXT) variables should be included into Demographics (DM) domain.;Presence;
SD1130;FDAB009;Inconsistent value for QNAM within QLABEL;All values of Qualifier Variable Name (QNAM) should be the same for a given value of Qualifier Variable Label (QLABEL).;Consistency;
SD1131;FDAB026;Missing --STRESC value for Baseline record;A Standard Result value (--STRESC) is expected to be populated for Baseline records (--BLFL='Y').;Presence;
SD1132;CG0041, CG0042;AESER is not 'Y';Serious Event (AESER) variable value is expected to be 'Y' when either of Seriousness Criteria variables (AESCAN, AESCONG, AESDISAB, AESDTH, AESHOSP, AESLIFE, AESMIE) has value 'Y'.;Consistency;
SD1133;FDAB009;Inconsistent value for ACTARM;A value for Description of Actual Arm (ACTARM) must have a unique value for Actual Arm Code (ACTARMCD) with the domain.;Consistency;
SD1134;FDAB009;Inconsistent value for ACTARMCD;A value for Actual Arm Code (ACTARMCD) must have a unique value for Description of Actual Arm (ACTARM) with the domain.;Consistency;
SD1135;FDAB036;Negative value of Study Day variable;Study Day variables (*DY) value should not be negative in Exposure (EX) and Exposure As Collected (EC) datasets.;Limit;
SD1137;;Non-missing value for --ORRES when --DRVFL='Y';Character Result/Finding in Original Units (--ORRES) value should be null when Derived Flag (--DRVFL) value is 'Y'.;Consistency;
SD1138;;--DRVFL='Y' when --ORRES value is populated;Derived Flag (--DRVFL) variable may be populated only when Result in Original Units (--ORRES) value is null and Result in Std. Format (--STRESC) value is populated (result is derived rather than collected).;Consistency;
SD1143;CG0043;No Details info for AESMIE Adverse Event in SUPPAE domain;When a description of Other Medically Important Serious Adverse Events category is collected on a CRF, sponsors should place the description in the SUPPAE dataset using the standard supplemental qualifier name code AESOSP.;Presence;
SD1144;CG0079;MHSTDTC date is after RFSTDTC;The medical history dataset includes the subject's prior history at the start of the trial. Start Date/Time of Medical History Event (MHSTDTC) should be before Subject Reference Start Date/Time (RFSTDTC).;Limit;
SD1147;CG0088;Missing --PRESP variable when --OCCUR variable is present;Pre-specified (--PRESP) variable should be included into dataset when Occurrence (--OCCUR) variable is present. (--PRESP/Events) Used to indicate whether the event described by --TERM was pre-specified on a CRF. Value is Y for pre-specified events, null for spontaneously reported events. (--PRESP/Interventions) Used when a specific intervention is pre-specified on a CRF. Values should be 'Y' or null. (--OCCUR) Used to record whether a pre-specified event occurred when information about the occurrence of a specific event is solicited.;Presence;
SD1149;;Expected variable with missing value for all records;Expected variables may contain some null values, but in most cases will not contain null values for every record. When no data has been collected for an Expected variable, however, a null column must still be included in the dataset, and a comment must be included in the define.xml to state that data was not collected.;Presence;
SD1150;FDAB009;Inconsistent value for IETEST within IETESTCD;All values of Inclusion/Exclusion Criterion (IETEST) should be the same for a given value of Inclusion/Exclusion Criterion Short Name (IETESTCD) and Protocol Criteria Versions (TIVERS).;Consistency;
SD1151;FDAB009;Inconsistent value for IETESTCD within IETEST;All values of Inclusion/Exclusion Criterion Short Name (IETESTCD) should be the same for a given value of Inclusion/Exclusion Criterion (IETEST) and Protocol Criteria Versions (TIVERS).;Consistency;
SD1152;CG0019;Duplicate records per Key Variables in Define.xml;The structure of study data should be one record per unique combination of values in Key Variables provided in Define.xml file by KeySequence attribute for each domain or dataset. Note that Key Variables should represent physical structure of collected data. Utilization of artificial surrogate keys like --SEQ variable should be avoided. Current implementation of the rule is limited to the domain and does not use additional non-standard variables stored in SUPPQUAL datasets.;Consistency;
SD1201;;Duplicate records in domain;The structure of Events class domains should be one record per Event per subject. No Events with the same Collected Term (--TERM), Decoded Term (--DECOD), Category (--CAT), Subcategory (--SCAT), Occurrence (--OCCUR), Location (--LOC), Laterality (--LAT), Directionality (--DIR), Severity (--SEV), Toxicity Grade (--TOXGR), Visit Number (VISITNUM), Visit Day (VISITDY), and Start Reference Time Point (--STTPT) values for the same Subject (USUBJID) and the same Start Date (--STDTC) are expected.;Consistency;
SD1202;FDAB034;--STDTC date is after RFPENDTC;Start Date/Time (--STDTC) variable value must be less than or equal to Date/Time of End of Participation (RFPENDTC). If the study is ongoing, Parameter Value (TSVAL) for the 'ONGOSIND/Ongoing Study Indicator' parameter should be set to 'Y' in the Trial Summary (TS) domain.;Limit;
SD1203;FDAB034;--DTC date is after RFPENDTC;Date/Time of Collection (--DTC) variable value must be less than or equal to Date/Time of End of Participation (RFPENDTC). If the study is ongoing, Parameter Value (TSVAL) for the 'ONGOSIND/Ongoing Study Indicator' parameter should be set to 'Y' in the Trial Summary (TS) domain.;Limit;
SD1204;FDAB034;--ENDTC date is after RFPENDTC;End Date/Time (--ENDTC) variable value must be less than or equal to Date/Time of End of Participation (RFPENDTC). If the study is ongoing, Parameter Value (TSVAL) for the 'ONGOSIND/Ongoing Study Indicator' parameter should be set to 'Y' in the Trial Summary (TS) domain.;Limit;
SD1205;FDAB008, CG0148;EXSTDTC date is before RFXSTDTC;Start Date/Time of Treatment (EXSTDTC) variable value must be greater than or equal to Date/Time of First Study Treatment (RFXSTDTC).;Limit;
SD1206;FDAB034, CG0147;EXSTDTC date is after RFXENDTC;Start Date/Time of Treatment (EXSTDTC) variable value must be less than or equal to Date/Time of Last Study Treatment (RFXENDTC).;Limit;
SD1207;FDAB034, CG0147;EXENDTC date is after RFXENDTC;End Date/Time of Treatment (EXENDTC) variable value must be less than or equal to Date/Time of Last Study Treatment (RFXENDTC).;Limit;
SD1208;FDAB034;RFXSTDTC date is after RFXENDTC;Date/Time of First Study Treatment (RFXSTDTC) variable value must be less than or equal to Date/Time of Last Study Treatment (RFXENDTC).;Limit;
SD1209;FDAB043;Missing value for RFXENDTC when RFXSTDTC is provided;Value for Date/Time of Last Study Treatment (RFXENDTC) variable must be populated when Date/Time of First Study Treatment (RFXSTDTC) variable value is provided.;Limit;
SD1210;FDAB038;Missing value for RFICDTC;Date/Time of Informed Consent (RFICDTC) variable value should be populated. It would be null only in studies not collecting this info.;Presence;
SD1212;FDAB031;--STRESN does not equal --STRESC;Standardized Result in Numeric Format (--STRESN) variable value should be equal Standardized Result in Character Format (--STRESC) variable value when Standardized Result in Character Format (--STRESC) variable value represents a numeric value.;Consistency;
SD1213;FDAB038;RFSTDTC is not provided for a treated subject;Subject Reference Start Date/Time (RFSTDTC) should be populated for all treated subjects, those where Actual Arm Code (ACTARMCD) is not equal to 'SCRNFAIL', 'NOTASSGN', 'NOTTRT', or null.;Consistency;
SD1214;FDAB011;Multiple ADDON records;Trial Summary (TS) domain must contain only one record for 'ADDON' Parameter.;Consistency;
SD1215;CG0270;Invalid TSVAL value for AGEMAX;TSVAL value must be either ISO 8601 format for time period (e.g., P80Y) or null when TSPARMCD='AGEMAX'.;Format;
SD1216;FDAB011;Multiple AGEMAX records;Trial Summary (TS) domain must contain only one record for 'AGEMAX' Parameter.;Consistency;
SD1217;CG0438;Invalid TSVAL value for AGEMIN;TSVAL value must be either ISO 8601 format for time period (e.g., P80Y) or null when TSPARMCD='AGEMIN'.;Format;
SD1218;FDAB011;Multiple AGEMIN records;Trial Summary (TS) domain must contain only one record for 'AGEMIN' Parameter.;Consistency;
SD1219;CG0439;Invalid TSVAL value for LENGTH;TSVAL value must be either ISO 8601 format for time period (e.g., P80Y) or null when TSPARMCD='LENGTH'.;Format;
SD1220;FDAB011;Multiple LENGTH records;Trial Summary (TS) domain must contain only one record for 'LENGTH' Parameter.;Consistency;
SD1221;CG0440;Invalid TSVAL value for PLANSUB;TSVAL for PLANSUB record must be numeric.;Format;
SD1222;FDAB011;Multiple PLANSUB records;Trial Summary (TS) domain must contain only one record for 'PLANSUB' Parameter.;Consistency;
SD1223;CG0271;Invalid TSVAL value for RANDOM;TSVAL for RANDOM record must be 'Y' or 'N'.;Terminology;
SD1224;FDAB011;Multiple RANDOM records;Trial Summary (TS) domain must contain only one record for 'RANDOM' Parameter.;Consistency;
SD1225;FDAB011;Multiple SEXPOP records;Trial Summary (TS) domain must contain only one record for 'SEXPOP' Parameter.;Consistency;
SD1227;FDAB011;Multiple NARMS records;Trial Summary (TS) domain must contain only one record for 'NARMS' Parameter.;Consistency;
SD1228;TCG 4.1.4.5;Variable value not found in user-defined codelist when value-level condition occurs;Variable value must be populated with terms from user-defined value level codelist as specified in define.xml file.;Terminology;
SD1229;TCG 4.1.4.5;Variable value is null when value-level condition occurs;Variable value must be populated when value level attribute Mandatory='Yes' as specified in define.xml file.;Terminology;
SD1230;TCG 4.1.4.5;Variable datatype is not %Variable.@Clause.DataType% when value-level condition occurs;Value level datatype must match the datatype described in define.xml.;Format;
SD1231;TCG 4.1.4.5;Variable value is longer than defined max length %Variable.@Clause.Length% when value-level condition occurs;Value level length must not exceed the length as specified define.xml.;Limit;
SD1233;;Device is not present in DI domain;All Medical Devices (SPDEVID) must be present in Device Identifier (DI) domain.;Cross-reference;
SD1234;;Missing DEVTYPE Parameter for Device;Device Type (DEVTYPE) Parameter must be populated for each Medical Device in the Device Identifiers (DI) domain.;Presence;
SD1235;;Neither SPDEVID nor USUBJID values are populated;Value for Sponsor Device Identifier (SPDEVID) or Unique Subject Identifier (USUBJID) variables should be populated for all records in Device In-Use (DU) domain.;Presence;
SD1236;;Duplicate value for --SEQ variable;The value of Sequence Number (--SEQ) variable must be unique for each record within a domain and within each combination of Sponsor Device Identifier (SPDEVID) and Unique Subject Identifier (USUBJID) variables' values.;Consistency;
SD1237;;Duplicate records in Device Property;There should be one record per device property defined by SPDEVID and DOTESTCD variables.;Consistency;
SD1238;FDAB037, CG0026;--RFTDTC is populated when --TPTREF is not populated;--RFTDTC is defined as the Date/time for a fixed reference time point defined by --TPTREF, therefore --RFTDTC should only be populated when --TPTREF is populated.;Consistency;
SD1240;;No Informed Consent Obtained record in DS domain for subject;All subjects should have an Informed Consent record in the Disposition domain.;Presence;
SD1241;;--BODSYS is not populated when --BDSYCD is populated;Body System or Organ Class (--BODSYS) must be populated when Body System or Organ Class Code (--BDSYCD) is populated.;Consistency;
SD1242;CG0083;Inconsistent value for --BODSYS within --BDSYCD;All values of Body System or Organ Class (--BODSYS) should be the same for a given value of Body System or Organ Class Code (--BDSYCD).;Consistency;
SD1243;CG0083;Inconsistent value for --BDSYCD within --BODSYS;All values of Body System or Organ Class Code (--BDSYCD) should be the same for a given value of Body System or Organ Class (--BODSYS).;Consistency;
SD1244;CG0091, CG0661;Missing --TPT variable when --TPTNUM variable is present;Planned Time Point Name (--TPT) variable must be included into the domain when Planned Time Point Number (--TPTNUM) variable is present.;Presence;
SD1245;FDAB037, CG0090;Missing --TPTREF variable when --RFTDTC variable is present;Time Point Reference (--TPTREF) variable must be included into the domain when Date/Time of Reference Point (--RFTDTC) variable is present.;Presence;
SD1246;CG0092;Missing --TPTREF variable when --ELTM variable is present;Time Point Reference (--TPTREF) variable must be included into the domain when Planned Elapsed Time from Time Point Ref (--ELTM) variable is present.;Presence;
SD1247;CG0100;ECDOSE is not greater than 0 when ECOCCUR does not equal 'N' and ECDOSTXT is null;ECDOSE must be greater than zero when ECOCCUR does not equal 'N', ECSTAT does not equal 'NOT DONE', and ECDOSTXT is null. ECDOSE must not be set to zero (0) as an alternative method for indicating doses not taken, not given, or missed.;Consistency;
SD1248;CG0101;ECDOSE is not null or greater than 0 when ECOCCUR = 'N';ECDOSE must either be null when ECOCCUR equals 'N', or ECDOSE must be greater than 0. ECDOSE would be greater than 0 (when ECOCCUR equals N) for records that represent specific dose amounts that are not taken, not given, or missed.;Consistency;
SD1249;CG0102;EXDOSE does not equal 0 when EXTRT = 'PLACEBO';EXDOSE must be equal to 0 when EXTRT = 'PLACEBO'.;Consistency;
SD1250;CG0468;Missing --TPTNUM variable when --TPT variable is present;Planned Time Point Number (--TPTNUM) variable must be included into the domain when Planned Time Point Name (--TPT) variable is present.;Presence;
SD1251;CG0106, CG0108;--VAMTU value is populated when --TRTV is null;Treatment Vehicle Amount Units (--VAMTU) value must be null when Treatment Vehicle Amount (--TRTV) value is null.;Consistency;
SD1252;CG0132;DTHFL does not equal 'Y' when SS.SSSTRESC = 'DEAD';DTHFL must equal 'Y' when there is a record in the Subject Status (SS) domain with SSSTRESC = 'DEAD'.;Presence;
SD1253;CG0133;DTHFL does not equal 'Y' when DD record is present;DTHFL must equal 'Y' when there is a record in the Death Details (DD) domain.;Presence;
SD1254;CG0134;DTHFL does not equal 'Y' when AE.AEOUT = 'FATAL';DTHFL must equal 'Y' when there is a record in the Adverse Events (AE) domain with AEOUT = 'FATAL'.;Presence;
SD1255;CG0135;DTHFL does not equal 'Y' when AE.AESDTH = 'Y';DTHFL must equal 'Y' when there is a record in the Adverse Events (AE) domain with AESDTH = 'Y'.;Presence;
SD1256;CG0136;DTHFL does not equal 'Y' when DS.DSDECOD = 'DEATH';DTHFL must equal 'Y' when there is a record in the Disposition (DS) domain with DSDECOD = 'DEATH'.;Presence;
SD1259;CG0149;Invalid value for SETCD exceeding 8 characters;The value of Set Code (SETCD) should be no more than 8 characters in length.;Format;
SD1260;CG0267;TSVCDVER is null when Reference Terminology is versioned;The Version of the Reference Terminology variable (TSVCDVER) should be populated with the version number of the Reference Terminology when that Reference Terminology is versioned.;Consistency;
SD1261;CG0171;SSDTC is not greater than or equal to DTHDTC when SSSTRESC = 'DEAD';Subject Status Date/Time of Assessment (SSDTC) must be greater than or equal to Date/Time of Death (DTHDTC) when the subject's status is 'DEAD'.;Consistency;
SD1262;CG0172;SSDTC is not greater than or equal to DSSTDTC when SSSTRESC = 'DEAD';Subject Status Date/Time of Assessment (SSDTC) must be greater than or equal to Start Date/Time of Disposition Event (DSSTDTC) when the subject's status is 'DEAD'.;Consistency;
SD1263;CG0193;MBRESCAT is null when MBTESTCD = 'ORGANISM';MBRESCAT is expected to be populated in all records where a microorganism has been identified (MBTESTCD = 'ORGANISM'), excluding records where MBSTRESC equals 'NO GROWTH' or MBMETHOD equals 'GRAM STAIN'.;Consistency;
SD1264;CG0201;IDVAR equals --SEQ when IDVARVAL is null and USUBJID is null;When the RELREC dataset is used to identify relationships between datasets (in which case USUBJID and IDVARVAL are left null), instead of relating individual records, --SEQ cannot be used for IDVAR because --SEQ only has meaning within a subject within a dataset, not across datasets.;Consistency;
SD1265;CG0202;QEVAL is null when QORIG equals 'ASSIGNED';For subjective data (when QORIG='ASSIGNED'), QEVAL should be populated, and the value should reflect the role of the person or institution assigning the value.;Consistency;
SD1266;CG0210;ETCD equals 'UNPLAN' when SEUPDES is null;When the Description of Unplanned Element (SEUPDES) is not populated, the Element Code (ETCD) should not be equal to 'UNPLAN'.;Consistency;
SD1267;CG0248;Invalid value for TAETORD;Planned Order of Element within Arm (TAETORD) variable value must be an integer.;Format;
SD1268;CG0266;TSVCDREF is null when TSVCDVER is populated;The Name of the Reference Terminology (TSVCDREF) must be populated when the Version of the Reference Terminology (TSVCDVER) is populated.;Consistency;
SD1269;CG0280;TSVAL is not between 0 and 1 when TSPARMCD = 'RANDQT';For the trial summary parameter Randomization Quotient (TSPARMCD = 'RANDQT'), the value must always be a number between 0 and 1, with some cases where the ratio might be equal to 1.;Consistency;
SD1270;CG0318;Missing PC dataset when PP dataset is present;Pharmacokinetic Concentrations (PC) dataset should be included when a Pharmacokinetic Parameters (PP) dataset is present.;Presence;
SD1271;CG0325;The combination of ELEMENT, TESTRL TEENRL, and TEDUR is not unique for each ETCD;The combination of Description of Element (ELEMENT), Rule for Start of Element (TESTRL), Rule for End of Element (TEENRL), and Planned Duration of Element (TEDUR) should be unique for each Element Code (ETCD).;Consistency;
SD1272;CG0341;--TESTCD equals 'OTHER';Test Code variables (--TESTCD) should not be populated with values of 'OTHER'.;Consistency;
SD1273;CG0342;--TRT equals 'OTHER';Name of Treatment variables (--TRT) should not be populated with values of 'OTHER'.;Consistency;
SD1274;CG0343;--TERM equals 'OTHER';Reported Term variables (--TERM) should not be populated with values of 'OTHER'.;Consistency;
SD1275;CG0344;--TESTCD equals 'MULTIPLE';Test Code variables (--TESTCD) should not be populated with values of 'MULTIPLE'.;Consistency;
SD1276;CG0345;--TRT equals 'MULTIPLE';Name of Treatment variables (--TRT) should not be populated with values of 'MULTIPLE'.;Consistency;
SD1277;CG0346;--TERM equals 'MULTIPLE';Reported Term variables (--TERM) should not be populated with values of 'MULTIPLE'.;Consistency;
SD1278;CG0265;Inconsistent value for TSVALCD within TSVAL;Parameter Value Code (TSVALCD) and Parameter Value (TSVAL) should have a one-to-one relationship.;Consistency;
SD1279;CG0462;ECDOSTXT is null when ECDOSE is null and ECOCCUR does not equal 'N';Dose Description (ECDOSTXT) should be populated when Dose (ECDOSE) is null, ECOCCUR does not equal 'N', and ECSTAT does not equal 'NOT DONE'.;Consistency;
SD1280;CG0084;--TOX variable is present when --TOXGR variable is missing;Toxicity (--TOX) variable should not be present in the domain when the Toxicity Grade (--TOXGR) variable is missing.;Presence;
SD1282;CG0093;--TPTREF variable is present when --ELTM, --TPTNUM, and --TPT are missing;Time Point Reference (--TPTREF) variable should not be present in the domain when the Planned Elapsed Time from Time Point Ref (--ELTM) variable, Planned Time Point Number (--TPTNUM) variable, and Planned Time Point (--TPT) variable are missing.;Presence;
SD1283;CG0095;--LAT variable is present when --LOC variable is missing;Laterality (--LAT) variable should not be present in the domain when the Location (--LOC) variable is missing.;Presence;
SD1284;CG0115;--PORTOT variable is present when --LOC variable is missing;Portion or Totality (--PORTOT) variable should not be present in the domain when the Location (--LOC) variable is missing.;Presence;
SD1285;CG0116;--DIR variable is present when --LOC variable is missing;Directionality (--DIR) variable should not be present in the domain when the Location (--LOC) variable is missing.;Presence;
SD1286;CG0255, CG0256;IETESTCD is not unique within TIVERS;A value of Incl/Excl Criterion Short Name (IETESTCD) must be unique within a version of inclusion/exclusion criteria (TIVERS).;Consistency;
SD1287;CG0049;Inconsistent value for --DECOD within --PTCD;All values of Dictionary-Derived Term (--DECOD) should be the same for a given value of Preferred Term Code (--PTCD).;Consistency;
SD1288;CG0049;Inconsistent value for --PTCD within --DECOD;All values of Preferred Term Code (--PTCD) should be the same for a given value of Dictionary-Derived Term (--DECOD).;Consistency;
SD1289;CG0050;Missing value for --DECOD when --PTCD is populated;Dictionary-Derived Term (--DECOD) should be populated when Preferred Term Code (--PTCD) is populated.;Consistency;
SD1291;CG0045;Missing value for --ENRTPT when --ENTPT is populated;End Relative to Reference Time Point (--ENRTPT) must be populated when End Reference Time Point (--ENTPT) is populated.;Consistency;
SD1292;CG0059;Missing value for --STRTPT when --STTPT is populated;Start Relative to Reference Time Point (--STRTPT) must be populated when Start Reference Time Point (--STTPT) is populated.;Consistency;
SD1293;CG0053;--REASND variable is present when --PRESP variable is missing;Reason Not Done (--REASND) variable should not be present in the domain when the Pre-specified (--PRESP) variable is missing.;Presence;
SD1294;CG0056;--STAT variable is present when --PRESP variable is missing;Completion Status (--STAT) variable should not be present in the domain when the Pre-specified (--PRESP) variable is missing.;Presence;
SD1295;CG0269;Invalid TSVAL value for ADDON parameter;TSVAL for ADDON record must be 'Y' or 'N'.;Terminology;
SD1296;CG0282;Invalid TSVAL value for ADAPT parameter;TSVAL for ADAPT record must be 'Y' or 'N'.;Terminology;
SD1297;CG0291;TSVAL is populated with a value from the ISO 21090 null flavor codelist;TSVAL should not be populated with a value from the ISO 21090 Null Flavor codelist, or synonyms of the values. The TSVALNF variable should be used to capture these values, not TSVAL.;Consistency;
SD1298;CG0185;LBTOXGR is not a numeric value when a numeric scale is used;"If LBTOXGR value is from a numeric scale, represent only the number (e.g., ""2"" and not ""Grade 2"").";Consistency;
SD1299;CG0219;No timing variables are present in dataset;All domains based on the general observation classes (Interventions, Events, Findings) should have at least one Timing variable present.;Presence;
SD1300;CG0308;Invalid value (not 2 chars) for DOMAIN variable;The value of DOMAIN should be no more than 2 characters in length, excluding Associated Persons domains.;Format;
SD1301;CG0376;Invalid value for TDSTOFF variable;Offset from the Anchor (TDSTOFF) variable value must be either 0, ISO 8601 format for duration (e.g., P80Y), or null.;Format;
SD1306;CG0272;The TDIGRP Trial Summary Parameter is not provided with TSVAL equal to null when HLTSUBJI parameter equals 'Y';When the study population is healthy subjects (TSPARMCD = 'HLTSUBJI' and TSVAL = 'Y'), the Diagnosis Group parameter should be provided with a null Parameter Value (TSVAL should be null when TSPARMCD = 'TDIGRP').;Presence;
SD1307;CG0273;TSVAL is missing for the TDIGRP Trial Summary Parameter when HLTSUBJI parameter equals 'N';When the study population is not healthy subjects (TSPARMCD = 'HLTSUBJI' and TSVAL = 'N'), the Diagnosis Group parameter should be provided with Parameter Value populated (TSVAL should not be null when TSPARMCD = 'TDIGRP').;Presence;
SD1308;CG0275;TSVAL is missing for the CURTRT Trial Summary Parameter when ADDON parameter equals 'Y';When test product is added to existing treatment (TSPARMCD = 'ADDON' and TSVAL = 'Y'), the Current Therapy or Treatment parameter should be provided with Parameter Value populated (TSVAL should not be null when TSPARMCD = 'CURTRT').;Presence;
SD1309;CG0276;TSVAL is missing for the TRT Trial Summary Parameter when STYPE parameter equals 'INTERVENTIONAL';When the study type is interventional (TSPARMCD = 'STYPE' and TSVAL = 'INTERVENTIONAL'), the Investigational Therapy or Treatment parameter should be provided with Parameter Value populated (TSVAL should not be null when TSPARMCD = 'TRT').;Presence;
SD1310;CG0277;TSVAL is missing for the INTMODEL Trial Summary Parameter when STYPE parameter equals 'INTERVENTIONAL';When the study type is interventional (TSPARMCD = 'STYPE' and TSVAL = 'INTERVENTIONAL'), the Intervention Model parameter should be provided with Parameter Value populated (TSVAL should not be null when TSPARMCD = 'INTMODEL').;Presence;
SD1311;CG0278;TSVAL is missing for the INTTYPE Trial Summary Parameter when STYPE parameter equals 'INTERVENTIONAL';When the study type is interventional (TSPARMCD = 'STYPE' and TSVAL = 'INTERVENTIONAL'), the Intervention Type parameter should be provided with Parameter Value populated (TSVAL should not be null when TSPARMCD = 'INTTYPE').;Presence;
SD1312;CG0279;TSVAL is missing for the PCLAS Trial Summary Parameter when STYPE parameter equals 'INTERVENTIONAL';When the study type is interventional (TSPARMCD = 'STYPE' and TSVAL = 'INTERVENTIONAL'), the Pharmacologic Class parameter should be provided with Parameter Value populated (TSVAL should not be null when TSPARMCD = 'PCLAS').;Presence;
SD1313;;Missing EPOCH value when DSCAT is 'DISPOSITION EVENT';Epoch (EPOCH) variable should be provided when Category for Disposition Event (DSCAT) equals 'DISPOSITION EVENT'.;Consistency;
SD1314;CG0065;DSDECOD is not 'COMPLETED' when DSTERM='COMPLETED';When Reported Term for the Disposition Event (DSTERM) is 'COMPLETED', Standardized Disposition Term (DSDECOD) should have the same value 'COMPLETED'.;Consistency;
SD1316;CG0067;Missing 'DEATH' record for subject in DS domain;All subjects who have Death records (SSSTRESC = 'DEAD') in Survival Status (SS) domain should also have death records (DSDECOD='DEATH') in Disposition (DS) domain.;Consistency;
SD1317;CG0069;DSSTDTC for DEATH record is not the same as DM.DTHDTC;DEATH records (DSDECOD='DEATH') in the Disposition (DS) domain should have Start Date of Event (DSSTDTC) equal to subject's Date/Time of Death (DTHDTC) populated in the Demographics (DM) domain. Subject's Date/Time of Death info should be consistent across all domains.;Limit;
SD1318;;No records for subject are found in DV domain;Subjects who have DSDECOD = 'PROTOCOL VIOLATION' or DSDECOD = 'PROTOCOL DEVIATION' records in the Disposition (DS) domain should have supportive records with details in the Protocol Deviations (DV) domain.;Consistency;
SD1319;CG0075;--STDTC is before RFICDTC;All records in the Disposition (DS) and Protocol Deviations (DV) domains should have the Start Date/Time of Event (--STDTC) equal to or after a subject's Date/Time of Informed Consent (RFICDTC) in the Demographics (DM) domain.;Limit;
SD1320;;Missing value for --STRESC when --STAT is null;Character Result/Finding in Std Format (--STRESC) value should not be null when Completion Status (--STAT) value is null.;Consistency;
SD1321;FDAB001;No Treatment Emergent info for Adverse Event (missing SUPPAE);A treatment-emergent flag should be included in SUPPAE according to the FDA business rule that states, 'A treatment-emergent flag should be submitted'.;Presence;
SD1322;FDAB017;Value for COUNTRY not found in GENC;Value for the Country (COUNTRY) variable must be populated using terms found in Geopolitical Entities, Names, and Codes (GENC) dictionary. Note that country codes in GENC and ISO 3166 are the same for most cases.;Terminology;
SD1323;;Invalid TSVAL value for FCNTRY;TSVAL for FCNTRY record must be a valid term from Geopolitical Entities, Names, and Codes (GENC) dictionary. GENC is an FDA requirement. Note that the Country codes in GENC and ISO 3166-1 alpha-3 are the same for most cases.;Terminology;
SD1324;TCG 4.1.4.5;Define.xml/dataset variable label mismatch;Variable Label in define.xml must match variable Label in dataset.;Metadata;
SD1325;TCG 4.1.4.5;Define.xml/dataset description mismatch;Dataset Description in define.xml must match dataset Description.;Metadata;
SD1327;CG0364;RSUBJID is equal to POOLID;The Related Subject or Pool Identifier (RSUBJID) value should not be equal to Pool Identifier (POOLID).;Consistency;
SD1328;CG0363;RSUBJID is equal to USUBJID;The Related Subject or Pool Identifier (RSUBJID) value should not be equal to USUBJID.;Consistency;
SD1330;FDAB034;--DY is after --ENDY;Study Day of Observation (--DY) must be less or equal to Study Day of End of Observation (--ENDY).;Limit;
SD1331;FDAB034;--STDTC is after --DTC;Start Date/Time of Event, Exposure (--STDTC) must be less or equal to Date/Time of Collection(--DTC).;Limit;
SD1332;FDAB034;AEOUT = NOT RECOVERED/NOT RESOLVED, but an end date is provided;The Outcome of Adverse Event (AEOUT) variable is populated with the value NOT RECOVERED/NOT RESOLVED, however the End Date/Time of Adverse Event (AEENDTC) variable is populated with an end date for the adverse event. If the adverse event has an outcome of NOT RECOVERED/NOT RESOLVED, it is expected that no end date is available.;Consistency;
SD1333;FDAB034;AEOUT = RECOVERED/RESOLVED, but an end date or collected duration is not provided;The Outcome of Adverse Event (AEOUT) variable is populated with the value RECOVERED/RESOLVED, however the End Date/Time of Adverse Event (AEENDTC) or Duration of Adverse Event (AEDUR) variables are null. If the adverse event has an outcome of RECOVERED/RESOLVED, it is expected that an end date or a collected duration be provided.;Consistency;
SD1334;FDAB034;RFICDTC is after RFSTDTC;Date/Time of Informed Consent (RFICDTC) should not be after Subject Reference Start Date/Time (RFSTDTC).;Limit;
SD1335;FDAB034;RFICDTC is after RFXSTDTC;Date/Time of Informed Consent (RFICDTC) should not be after Date/Time of First Study Treatment (RFXSTDTC).;Limit;
SD1336;;TRLNKID value does not exist in TU domain;A Link ID (TRLNKID) value for a tumor that is referenced in the Tumor Results (TR) domain for a subject must also be present in the Tumor Identification (TU) domain for that subject.;Cross-reference;
SD1337;;RSLNKID value does not exist in TR domain;A Link ID (RSLNKID) value for a response assessment that is referenced in the Disease Response (RS) domain for a subject must also be present in the Tumor Results (TR) domain for the appropriate measurement records for that subject.;Cross-reference;
SD1338;;RSLNKGRP value does not exist in TR domain;A Link Group (RSLNKGRP) value for a response assessment that is referenced in the Disease Response (RS) domain for a subject must also be present in the Tumor Results (TR) domain for the appropriate measurement records for that subject.;Cross-reference;
SD1339;FDAB022;Missing EPOCH value when a start or observation date is provided;The EPOCH variable is not populated, however either a start date or a collection date is provided. The presence of a start date or collection date for a record should allow for the EPOCH variable to be populated. Variables requested by the relevant regulatory agency in policy documents (e.g., EPOCH) should be included in the dataset and populated.;Presence;
SD1340;FDAB023;EX record is present when subject is not treated;Subjects that are not treated (ACTARMCD='NOTTRT' or null) should not have any Exposure records. Run-in records (EPOCH='RUN-IN') are excluded from firing for this validation rule.;Consistency;
SD1342;FDAB038;Missing value for RFXSTDTC when RFXENDTC is provided;Date/Time of First Study Treatment (RFXSTDTC) variable must be populated when Date/Time of Last Study Treatment (RFXENDTC)variable value is provided.;Limit;
SD1343;FDAB038;Missing value for RFXSTDTC when subject is treated;Date/Time of First Study Treatment (RFXSTDTC) variable must be populated when subject is treated (ACTARMCD is not 'SCRNFAIL', 'NOTTRT', 'NOTASSGN', or null).;Limit;
SD1344;FDAB017;Value for --DECOD not found in WHODrug dictionary;Value for the Standardized Medication Name (--DECOD) variable must be populated using a Drug Name from the WHO Drug dictionary version specified in the define.xml.;Terminology;
SD1345;FDAB017;Value for --CLAS not found in WHODrug dictionary;Value for the Medication Class (--CLAS) variable must be populated using ATC Text from the WHO Drug dictionary version specified in the define.xml.;Terminology;
SD1346;FDAB017;Value for --CLASCD not found in WHODrug dictionary;Value for the Medication Class Code (--CLASCD) variable must be populated using ATC Code from the WHO Drug dictionary version specified in the define.xml.;Terminology;
SD1347;FDAB006;AEENDTC for fatal AE is not the same as DM.DTHDTC;Fatal Adverse Event records (AEOUT = 'FATAL') in the Adverse Events (AE) domain should have End Date/Time of Adverse Event (AEENDTC) equal to subject's Date/Time of Death (DTHDTC) populated in the Demographics (DM) domain. Subject's Date/Time of Death info should be consistent across all domains.;Limit;
SD1348;;Missing values for --STINT and --ENINT variables when --TEST references 'T1 to T2';Planned Start of Assessment Interval (--STINT) and Planned End of Assessment Interval (--ENINT) variables should be present and populated when Name of Measurement, Test or Examination (--TEST) is over a time interval, 'T1 to T2', where 'T1' is represented by the value in --STINT and 'T2' is represented by the value in --ENINT.;Consistency;
SD1349;;Inconsistent STUDYID;Study Identifier (STUDYID) values should be consistent for all subjects in the Demographics (DM) domain for one study.;Consistency;
SD1350;;Missing value for --ENINT when --STINT is provided;Planned End of Assessment Interval (--ENINT) should not be null when Planned Start of Assessment Interval (--STINT) is populated.;Consistency;
SD1351;;Missing value for --STINT when --ENINT is provided;Planned Start of Assessment Interval (--STINT) should not be null when Planned End of Assessment Interval (--ENINT) is populated.;Consistency;
SD1352;;Duplicate records in domain;The structure of Interventions class domains should be one record per Intervention Episode per subject. No Interventions with the same Treatment (--TRT), Decoded Term (--DECOD), Mood (--MOOD), Category (--CAT), Subcategory (--SCAT), Route (--ROUTE), Location (--LOC) and Treatment Vehicle (--TRTV) values for the same Subject (USUBJID) with the same Start Date (--STDTC), Planned Time Point Name (--TPT), and Planned Time Point Number (--TPTNUM) are expected.;Consistency;
SD1353;;--STRESC does not equal --ORRES when --STRESU is equal to --ORRESU;Standardized Result in Character Format (--STRESC) variable value should be equal to Result or Finding in Original Units (--ORRES) variable value when variable values are numeric and Standard Units (--STRESU) and Original Units (--ORRESU) are populated with the same units or are null.;Consistency;
SD1354;;ARMCD value is not present in DM;Arm Code (ARMCD) values defined in Trial Arms (TA) should be assigned to at least one subject (USUBJID) in Demographics (DM).;Cross-reference;
SD1355;CG0501;Missing TM dataset when variable MIDS is present in a dataset;When the Disease Milestone Instance Name (MIDS) variable is used in any dataset, the Trial Disease Milestones (TM) dataset must be present for the study.;Presence;
SD1356;CG0502;Missing TM dataset when variable RELMIDS is present in a dataset;When the Temporal Relation to Milestone Instance (RELMIDS) variable is used in any dataset, the Trial Disease Milestones (TM) dataset must be present for the study.;Presence;
SD1357;CG0503;MIDS variable is missing, when MIDSDTC variable is present;Disease Milestone Instance Date/Time (MIDSDTC) variable should not be present in the domain when the Disease Milestone Instance Name (MIDS) variable is missing.;Presence;
SD1358;CG0513, CG0515;ARMNRS is not populated, when ACTARMCD or ACTARM is null;When Actual Arm Code (ACTARMCD)/Description of Actual Arm (ACTARM) are not populated, the Reason Arm and/or Actual Arm is Null (ARMNRS) variable must be populated with the reason ACTARMCD/ACTARM are null.;Consistency;
SD1359;CG0517, CG0519;ARMNRS is not populated when ARMCD/ARM are not provided;When Planned Arm Code (ARMCD)/Description of Planned Arm (ARM) are not populated, the Reason Arm and/or Actual Arm is Null (ARMNRS) variable must be populated with the reason ARMCD/ARM are null.;Consistency;
SD1360;CG0520;ARMNRS is populated, but ARMCD and ACTARMCD are populated;The Reason Arm and/or Actual Arm is Null (ARMNRS) variable should only be populated when Planned Arm Code (ARMCD) and Actual Arm Code (ACTARMCD) are null.;Consistency;
SD1361;CG0521;ARM is populated, but ARMCD is null, or vice versa;Description of Planned Arm (ARM) must be populated when Planned Arm Code (ARMCD) is populated, and vice versa.;Consistency;
SD1362;CG0522;ACTARM is populated, but ACTARMCD is null, or vice versa;Description of Actual Arm (ACTARM) must be populated when Actual Arm Code (ACTARMCD) is populated, and vice versa.;Consistency;
SD1363;CG0523, CG0570;ARMCD/ARM is populated for a subject not assigned to treatment;Planned Arm Code (ARMCD) and Description of Planned Arm (ARM) must be null for subjects who are not assigned to treatment. This includes Screen Failure subjects and Not Assigned subjects.;Consistency;
SD1364;CG0524;ACTARMCD/ACTARM is populated for a subject who wasn't treated;Actual Arm Code (ACTARMCD) and Actual Arm (ACTARM) must be null for subjects who weren't treated. This includes Screen Failure subjects, Not Assigned subjects, and Not Treated subjects.;Consistency;
SD1365;CG0138, CG0528;ADSL Population Flags provided in SDTM;ADSL Population Flags, which had standard Supplemental Qualifiers included in previous versions of the SDTMIG (COMPLT, FASFL/FULLSET, ITT, PPROTFL/PPROT, SAFFL/SAFETY, etc.) should no longer be used in SDTM.;Consistency;
SD1366;CG0530;RFENDTC is populated when ARMNRS is not null;Subject Reference End Date/Time (RFENDTC) should be null for screen failures or unassigned subjects. Therefore, when the Reason Arm and/or Actual Arm is Null (ARMNRS) variable is populated, RFENDTC should be null.;Consistency;
SD1367;CG0536, CG0537;Multiple disposition events for the same DSSCAT and EPOCH;There should be at most one disposition event record per subject per Subcategory for Disposition Event (DSSCAT) per Epoch. If multiple disposition events are reported for a Subcategory for DSSCAT and EPOCH, the sponsor should identify a primary reason and use that to populate DSTERM and DSDECOD. Additional reasons should be submitted in SUPPDS.;Consistency;
SD1368;CG0547;SMSTDTC is null;Start Date/Time of Milestone (SMSTDTC) should not be null. The start date/time of the Disease Milestone is the critical date/time and must be populated.;Consistency;
SD1369;CG0549;--STREFC is null when --ORREF is populated;Reference Result in Standard Format (--STREFC) should be populated when Reference Result in Original Units (--ORREF) is populated.;Consistency;
SD1370;CG0550;--STREFN is null when --STREFC is populated;Numeric Reference Result in Std Units (--STREFN) should be populated when Reference Result in Standard Format (--STREFC) is populated.;Consistency;
SD1371;CG0553;--ORRES is null when --LOBXFL = 'Y' (and --DRVFL is null);Result or Finding in Original Units (--ORRES) should be populated when Last Observation Before Exposure Flag (--LOBXFL) is set to 'Y’ unless the record is derived (--DRVFL = 'Y').;Consistency;
SD1372;CG0569;--STRESC is null when --LOBXFL = 'Y';Character Result/Finding in Std Format (--STRESC) should be populated when Last Observation Before Exposure Flag (--LOBXFL) is set to 'Y'.;Consistency;
SD1373;CG0534;RFSTDTC is populated for subject who did not receive treatment;RFSTDTC must be null when the Reason Arm and/or Actual Arm is Null (ARMNRS) variable is populated (excluding values of UNPLANNED TREATMENT), which indicates that the subject did not receive treatment.;Consistency;
SD1374;CG0540;No Disposition record found for subject;All Demographics (DM) subjects (USUBJID) should have at least one record in the Disposition (DS) domain with only possible exceptions to subjects who did not receive treatment (ACTARMCD is null).;Presence;
SD1376;CG0142;RFENDTC is not provided for a treated subject;Subject Reference End Date/Time (RFENDTC) should be populated for all treated subjects, those where Actual Arm Code (ACTARMCD) is not equal to 'SCRNFAIL', 'NOTASSGN' or 'NOTTRT' (or null). If the study is ongoing, Parameter Value (TSVAL) for the 'ONGOSIND/Ongoing Study Indicator' parameter should be set to 'Y' in the Trial Summary (TS) domain.;Consistency;
SD1377;;No records for SCREEN FAILURE subject are found in IE domain;All subjects with Reason Arm and/or Actual Arm is Null (ARMNRS) equal to 'SCREEN FAILURE' should have records in the Inclusion/Exclusion Criteria Not Met (IE) domain.;Consistency;
SD1378;;ETCD value does not present in TA;Element Code (ETCD) values defined in Trial Elements (TE) should be assigned for at least one Arm Code (ARMCD) in Trial Arms (Trial Arms).;Cross-reference;
SD1379;;ETCD value does not present in SE;Element Code (ETCD) values defined in Trial Elements (TE) should be assigned to at least one subject (USUBJID) in Subject Elements (SE).;Cross-reference;
SD1380;CG0554;No subject identifier variables are populated;At least one of the following subject identifier variables must be populated for each record: Unique Subject Identifier (USUBJID), Associated Persons Identifier (APID), Sponsor Device Identifier (SPDEVID), or Pool Identifier (POOLID).;Presence;
SD1439;FDAB026;Multiple BASELINE records for the same test;By its definition clinical baseline flags (e.g., last non-missing value prior to first dose) should have only a single record for the same test for subject. Therefore, each subject (USUBJID) should have no more than one record with Baseline Flag (--BLFL) equals 'Y' for the same assessment which is defined by Test (--TESTCD), Test Details (--TSTDTL), Category (--CAT), Subcategory (--SCAT), Method (--METHOD), Specimen (--SPEC), Location (--LOC), Laterality (--LAT), Directionality (--DIR), Position (--POS) and Object (--OBJ) variables.;Consistency;
SD1440;FDAB003;Inconsistent value for --DECOD within --TERM;MedDRA coding Preferred Term (--DECOD) should be consistent for the same collected term (--TERM).;Consistency;
SD1441;FDAB003;Inconsistent value for --HLT within --TERM;MedDRA coding High Level Term (--HLT) should be consistent for the same collected term (--TERM).;Consistency;
SD1442;FDAB003;Inconsistent value for --HLGT within --TERM;MedDRA coding High Level Group Term (--HLGT) should be consistent for the same collected term (--TERM).;Consistency;
SD1443;FDAB003;Inconsistent value for --BODSYS within --TERM;Body System (--BODSYS) should be consistent for the same collected term (--TERM).;Consistency;
SD1444;FDAB003;Inconsistent value for --SOC within --TERM;MedDRA System Organ Class (--SOC) should be consistent for the same collected term (--TERM).;Consistency;
SD1445;FDAB026;Multiple --LOBXFL records for the same test;By its definition Last Observation Before Exposure Flag (--LOBXFL) should have only a single record for the same test for subject. Therefore, each subject (USUBJID) should have no more than one record with Last Observation Before Exposure Flag (--LOBXFL) equals 'Y' for the same assessment which is defined by Test (--TESTCD), --TSTDTL (Measurement, Test or Examination Detail), Category (--CAT), Subcategory (--SCAT), Method (--METHOD), Specimen (--SPEC), Location (--LOC) and Laterality (--LAT).;Consistency;
SD1446;FDAB034;Exposure start date is after the latest Disposition date;Start Date/Time of Treatment (EXSTDTC) should be less than or equal to the Start Date/Time of the latest Disposition Event (DSSTDTC). Investigator should provide a date of study discontinuation for each subject in Disposition (DS) domain. If the study is ongoing, Parameter Value (TSVAL) for the 'ONGOSIND/Ongoing Study Indicator' parameter should be set to 'Y' in the Trial Summary (TS) domain.;Consistency;
SD1448;FDAB031;--STRESN is populated when --STRESC value is not numeric;Standardized Result in Numeric Format (--STRESN) variable value should be null when Standardized Result in Character Format (--STRESC) variable value does not represent a numeric value, (e.g., 'BLQ', value contains '<' or '>', etc.).;Consistency;
SD1449;FDAB003, TCG 6.3.1.1;Missing values for one or more variables subject to MedDRA: --LLT, --LLTCD, --DECOD, --PTCD, --HLT, --HLTCD, --HLGT, --HLGTCD, --BODSYS, --BDSYCD, --SOC, --SOCCD;Reported Term for the Adverse Event (AETERM) is expected to be coded using the Medical Dictionary for Regulatory Affairs (MedDRA). Sponsors should code each term to the MedDRA-specified hierarchy of terms. These terms/codes are represented in SDTM variables that are subject to MedDRA: AELLT, AELLTCD, AEDECOD, AEPTCD, AEHLT, AEHLTCD, AEHLGT, AEHLGTCD, AEBODSYS, AEBDSYCD, AESOC, AESOCCD.;Presence;
SD1450;FDAB044;Missing --ENINT variable when --STINT variable is present;Planned End of Assessment Interval (--ENINT) variable must be included in the domain when Planned Start of Assessment Interval (--STINT) variable is present.;Presence;
SD1451;FDAB044;Missing --STINT variable when --ENINT variable is present;Planned Start of Assessment Interval (--STINT) variable must be included in the domain when Planned End of Assessment Interval (--ENINT) variable is present.;Presence;
SD1452;FDAB040;Negative value for --VAMT;Non-missing Treatment Vehicle Amount (--VAMT) value must be greater than or equal to 0.;Limit;
SD1453;;Duplicate value for --SEQ variable;The value of Sequence Number (DISEQ) variable must be unique for each record within a domain and within each Sponsor Device Identifier (SPDEVID);Consistency;
SD1454;CG0549;--STREFC is null when --DRVFL='Y';Reference Result in Standard Format (--STREFC) should be populated when Derived Flag (--DRVFL) equals 'Y';Consistency;
SD1457;CG0018, CG0018, CG0205;Invalid value for Dataset Name;Dataset Name (DATASET) should follow limitations of SAS XPORT format v5. It should not exceed 8 characters and cannot contain characters other than letters in upper case, numbers, or underscores.;Format;
SD1461;CG0082;--BDSYCD is null when --BODSYS is populated;Body System or Organ Class Code (--BDSYCD) must be populated when Body System or Organ Class (--BODSYS) is populated.;Consistency;
SD1462;CG0039;Not the same values for --SOC and --BODSYS;When using a multi-axial dictionary such as MedDRA, Body System or System Organ Class (--BODSYS) variable value should be populated as Primary System Organ Class Code (--SOC) used for analysis.;Consistency;
SD1463;CG0037;Not the same values for --SOCCD and --BDSYCD;When using a multi-axial dictionary such as MedDRA, Body System or Organ Class Code (--BDSYCD) variable value should be populated as Primary System Organ Class Code (--SOCCD) used for analysis.;Consistency;
SD1464;CG0112;--DOSTXT is numeric value;Dose Description (--DOSTXT) is textual description of the quantity of an agent (e.g., drug, substance, radiation) taken or absorbed at a single administration. For numeric representation of dose, Dose (--DOSE) variable should be utilized.;Consistency;
SD1465;CG0166;Missing RDOMAIN value when IDVARVAL is populated;Value of Related Domain Abbreviation (RDOMAIN) variable should be populated when value of Identifying Variable Value (IDVARVAL) variable is populated.;Presence;
SD1467;CG0087;--OCCUR is populated when --PRESP is null or --STAT is 'NOT DONE';Occurrence Indicator (--OCCUR) variable should not be used in cases of spontaneously reported event occurred (--PRESP=null) and prespecified event which has no response (--PRESP='Y' and --STAT='NOT DONE').  See SDTMIG 3.4 section 4.5.7 for details.;Consistency;
SD1468;CG0105;EXVAMT variable in EX domain is present when EC domain exists;"When the EC domain is implemented in conjunction with the EX domain, EXVAMT and EXVAMTU should not be used in EX; collected values instead would be represented in ECDOSE and ECDOSU.";Presence;
SD1469;CG0107;EXVAMTU variable in EX domain is present when EC domain exists;"When the EC domain is implemented in conjunction with the EX domain, EXVAMT and EXVAMTU should not be used in EX; collected values instead would be represented in ECDOSE and ECDOSU.";Presence;
SD1470;CG0180;--ORRES is not numeric value, when --ORNRLO is populated;"Lower end of reference range for continuous measurement in original units (--ORNRLO) should be populated only for continuous results (--ORRES is numeric value). Allowed ""numeric"" values may include optional >, <, =, a space and - leading symbols in the listed order. For example, ""<= -1.2"".";Consistency;
SD1471;CG0181;--ORRES is not numeric value, when --ORNRHI is populated;"Upper end of reference range for continuous measurement in original units (--ORNRHI) should be populated only for continuous results (--ORRES is numeric value). Allowed ""numeric"" values may include optional >, <, =, a space and - leading symbols in the listed order. For example, ""<= -1.2"".";Consistency;
SD1472;CG0182;--ORRES is not numeric value, when --STNRLO is populated;"Lower end of reference range for continuous measurement in standard units (--STNRLO) should be populated only for continuous results (--ORRES is numeric value). Allowed ""numeric"" values may include optional >, <, =, a space and - leading symbols in the listed order. For example, ""<= -1.2"".";Consistency;
SD1473;CG0183;--ORRES is not numeric value, when --STNRHI is populated;"Upper end of reference range for continuous measurement in standard units (--STNRHI) should be populated only for continuous results (--ORRES is numeric value). Allowed ""numeric"" values may include optional >, <, =, a space and - leading symbols in the listed order. For example, ""<= -1.2"".";Consistency;
SD1474;CG0310, CG0310;Invalid value for Variable Name;Variable Name should follow limitations of SAS XPORT format v5. It should not exceed 8 characters and cannot contain characters other than letters in upper case, numbers, or underscores. It cannot start with a number.;Format;
SD1475;CG0311, CG0311;Variable label length is greater than 40 characters;Variable Label should follow limitations of SAS XPORT format v5. It should not exceed 40 characters.;Format;
SD1476;CG0646, CG0647, CG0648;Missing RACE value for subject;Subject Race (RACE) value should be populated in submission data. This information is important for analysis.;Presence;
SD2001;CG0123;Invalid value for ACTARMCD exceeding 20 characters;The value of Actual Arm Code (ACTARMCD) should be no more than 20 characters in length.;Format;
SD2002;CG0124, CG0125, CG0512;Invalid value for ACTARMCD;Actual Arm Code (ACTARMCD) values should match entries in the Trial Arms (TA) dataset, except for subjects who failed screening ('SCRNFAIL'), or were not fully assigned to an Arm ('NOTASSGN'), or randomized, but not treated ('NOTTRT'), or received non-planned treatment ('UNPLAN').;Cross-reference;
SD2003;CG0117, CG0118, CG0514;Invalid value for ACTARM;Description of Actual Arm (ACTARM) values should match entries in the Trial Arms (TA) dataset, except for subjects who failed screening ('Screen Failure'), or were not fully assigned to an Arm ('Not Assigned'), or randomized, but not treated ('Not Treated') or received non-planned treatment ('Unplanned Treatment').;Cross-reference;
SD2004;CG0435;Missing value for DTHFL when DTHDTC is populated;Subject Death Flag (DTHFL) value must equal 'Y' when Date/Time of Death (DTHDTC) is provided.;Consistency;
SD2005;FDAB006;Missing value for DTHDTC when DTHFL is populated;Date/Time of Death (DTHDTC) should be provided when subject died (DTHFL=Y).;Consistency;
SD2006;FDAB003;Unexpected MedDRA coding in the SUPPQUAL domain;MedDRA coding info should be populated using variables in the Events General Observation Class, but not in SUPPQUAL domains.;Consistency;
SD2007;FDAB003, CG0380;Value for --PTCD not found in MedDRA dictionary;Value for Preferred Term Code (--PTCD) variable must be populated using a Preferred Term Code of the MedDRA dictionary of a version specified in the define.xml.;Terminology;
SD2008;FDAB003, CG0377;Value for --LLT not found in MedDRA dictionary;Value for Lowest Level Term (--LLT) variable must be populated using a Lowest Level Term of the MedDRA dictionary of a version specified in the define.xml (Case-insensitive).;Terminology;
SD2008C;FDAB017;Value for --LLT is in incorrect case;Case for Lowest Level Term (--LLT) variable must be sentence case using a Lowest Level Term of the MedDRA dictionary of a version specified in the define.xml (Case-sensitive).;Terminology;
SD2009;FDAB003, CG0378;Value for --LLTCD not found in MedDRA dictionary;Value for Lowest Level Term Code (--LLTCD) variable must be populated using a Lowest Level Term Code of the MedDRA dictionary of a version specified in the define.xml.;Terminology;
SD2010;FDAB003, CG0381;Value for --HLT not found in MedDRA dictionary;Value for High Level Term (--HLT) variable must be populated using a High Level Term of the MedDRA dictionary of a version specified in the define.xml (Case-insensitive).;Terminology;
SD2010C;FDAB017;Value for --HLT is in incorrect case;Case for High Level Term (--HLT) variable must be sentence case using a High Level Term of the MedDRA dictionary of a version specified in the define.xml (Case-sensitive).;Terminology;
SD2011;FDAB003, CG0382;Value for --HLTCD not found in MedDRA dictionary;Value for High Level Term Code (--HLTCD) variable must be populated using a High Level Term Code of the MedDRA dictionary of a version specified in the define.xml.;Terminology;
SD2012;FDAB003, CG0383;Value for --HLGT not found in MedDRA dictionary;Value for High Level Group Term (--HLGT) variable must be populated using a High Level Group Term of the MedDRA dictionary of a version specified in the define.xml (Case-insensitive).;Terminology;
SD2012C;FDAB017;Value for --HLGT is in incorrect case;Case for High Level Group Term (--HLGT) variable must be sentence case using a High Level Group Term of the MedDRA dictionary of a version specified in the define.xml (Case-sensitive).;Terminology;
SD2013;FDAB003, CG0384;Value for --HLGTCD not found in MedDRA dictionary;Value for High Level Group Term Code (--HLGTCD) variable must be populated using a High Level Group Term Code of the MedDRA dictionary of a version specified in the define.xml.;Terminology;
SD2014;FDAB003, CG0386;Value for --BDSYCD not found in MedDRA dictionary;Value for Body System or Organ Class Code (--BDSYCD) variable should be populated using a System Organ Class Code of the MedDRA dictionary of a version specified in the define.xml.;Terminology;
SD2015;FDAB003, CG0436;Value for --SOC not found in MedDRA dictionary;Value for System Organ Class (--SOC) variable must be populated using a System Organ Class of the MedDRA dictionary of a version specified in the define.xml (Case-insensitive).;Terminology;
SD2015C;FDAB017;Value for --SOC is in incorrect case;Case for System Organ Class (--SOC) variable must be sentence case using a System Organ Class of the MedDRA dictionary of a version specified in the define.xml (Case-sensitive).;Terminology;
SD2016;FDAB003, CG0437;Value for --SOCCD not found in MedDRA dictionary;Value for System Organ Class Code (--SOCCD) variable must be populated using a System Organ Class Code of the MedDRA dictionary of a version specified in the define.xml.;Terminology;
SD2017;CG0259;Missing values for both --VAL and --VALNF;Value for Parameter Value (--VAL) variable must be populated. --VAL can only be null when Parameter Null Flavor (--VALNF) variable value is populated.;Presence;
SD2018;CG0260;Both --VAL and --VALNF variables are populated;Value for Parameter Null Flavor (--VALNF) variable should be null when Parameter Value (--VAL) variable value can be populated.;Presence;
SD2019;FDAB005;Invalid value for AGETXT;Age Range (AGETXT) variable values should be populated with 'number-number' format.;Format;
SD2020;FDAB005;Both AGE and AGETXT variables values are populated;Age (AGE) and Age Range (AGETXT) variables should never both be populated for the same subject.;Consistency;
SD2021;CG0434;Missing values for both AGE and AGETXT when AGEU is provided;Either of Age (AGE) or Age Range (AGETXT) variable values should be provided when Age Units (AGEU) are populated.;Consistency;
SD2022;CG0432;Missing value for AGEU when AGE or AGETXT is populated;Age Units (AGEU) variable values should be provided when Age (AGE) or Age Range (AGETXT) variables values are populated.;Consistency;
SD2023;FDAB005;AGE is not provided;Age (AGE) variable values should be provided when Date/Time of Birth (BRTHDTC) variable values are populated.;Consistency;
SD2024;CG0361, CG0362;Redundant values for USUBJID and POOLID;Only one of the Unique Subject Identifier (USUBJID) or Pool Identifier (POOLID) variables values may be populated, not both.;Consistency;
SD2201;CG0287;Missing ADDON Trial Summary Parameter;'Added on to Existing Treatments' (ADDON) record must be populated in Trial Summary (TS) domain. It is expected for SDTM IG v3.1.2 data and required for data in all more recent SDTM versions.;Presence;
SD2202;CG0287;Missing AGEMAX Trial Summary Parameter;'Planned Maximum Age of Subjects' (AGEMAX) record must be populated in Trial Summary (TS) domain. It is expected for SDTM IG v3.1.2 data and required for data in all more recent SDTM versions.;Presence;
SD2203;CG0287;Missing AGEMIN Trial Summary Parameter;'Planned Minimum Age of Subject' (AGEMIN) record must be populated in Trial Summary (TS) domain. It is expected for SDTM IG v3.1.2 data and required for data in all more recent SDTM versions.;Presence;
SD2204;CG0287;Missing LENGTH Trial Summary Parameter;'Trial Length' (LENGTH) record must be populated in Trial Summary (TS) domain. It is expected for SDTM IG v3.1.2 data and required for data in all more recent SDTM versions.;Presence;
SD2205;CG0287;Missing PLANSUB Trial Summary Parameter;'Planned Number of Subjects' (PLANSUB) record must be populated in Trial Summary (TS) domain. It is expected for SDTM IG v3.1.2 data and required for data in all more recent SDTM versions.;Presence;
SD2206;CG0287;Missing RANDOM Trial Summary Parameter;'Trial is Randomized' (RANDOM) record must be populated in Trial Summary (TS) domain. It is expected for SDTM IG v3.1.2 data and required for data in all more recent SDTM versions.;Presence;
SD2207;FDAB011, CG0287;Missing SEXPOP Trial Summary Parameter;'Sex of Participants' (SEXPOP) record must be populated in Trial Summary (TS) domain. It is expected for SDTM IG v3.1.2 data and required for data in all more recent SDTM versions.;Presence;
SD2208;CG0287;Missing STOPRULE Trial Summary Parameter;'Study Stop Rules' (STOPRULE) record must be populated in Trial Summary (TS) domain. It is expected for SDTM IG v3.1.2 data and required for data in all more recent SDTM versions.;Presence;
SD2209;CG0287;Missing TBLIND Trial Summary Parameter;'Trial Blinding Schema' (TBLIND) record must be populated in Trial Summary (TS) domain. It is expected for SDTM IG v3.1.2 data and required for data in all more recent SDTM versions.;Presence;
SD2210;CG0287;Missing TCNTRL Trial Summary Parameter;'Control Type' (TCNTRL) record must be populated in Trial Summary (TS) domain. It is expected for SDTM IG v3.1.2 data and required for data in all more recent SDTM versions.;Presence;
SD2211;CG0287;Missing TDIGRP Trial Summary Parameter;'Diagnosis Group' (TDIGRP) record must be populated in Trial Summary (TS) domain when study population is unhealthy subjects (HLTSUBJI = 'N'). It is expected for SDTM IG v3.1.2 data and required for data in all more recent SDTM versions.;Presence;
SD2212;CG0287;Missing TINDTP Trial Summary Parameter;'Trial Indication Type' (TINDTP) record must be populated in Trial Summary (TS) domain when study type is 'INTERVENTIONAL'. It is expected for SDTM IG v3.1.2 data and required for data in all more recent SDTM versions.;Presence;
SD2213;CG0287;Missing TITLE Trial Summary Parameter;'Trial Title' (TITLE) record must be populated in Trial Summary (TS) domain. It is expected for SDTM IG v3.1.2 data and required for data in all more recent SDTM versions.;Presence;
SD2214;CG0287;Missing TPHASE Trial Summary Parameter;'Trial Phase Classification' (TPHASE) record must be populated in Trial Summary (TS) domain. It is expected for SDTM IG v3.1.2 data and required for data in all more recent SDTM versions.;Presence;
SD2215;CG0287;Missing TTYPE Trial Summary Parameter;'Trial Type (TTYPE) record must be populated in Trial Summary (TS) domain. It is expected for SDTM IG v3.1.2 data and required for data in all more recent SDTM versions.;Presence;
SD2216;CG0287;Missing CURTRT Trial Summary Parameter;'Current Therapy or Treatment' (CURTRT) record must be populated in Trial Summary (TS) domain when ADDON is 'Y'. It is expected for SDTM IG v3.1.2 data and required for data in all more recent SDTM versions.;Presence;
SD2217;CG0287;Missing OBJPRIM Trial Summary Parameter;'Trial Primary Objective' (OBJPRIM) record must be populated in Trial Summary (TS) domain. It is expected for SDTM IG v3.1.2 data and required for data in all more recent SDTM versions.;Presence;
SD2218;CG0287;Missing SPONSOR Trial Summary Parameter;'Clinical Study Sponsor' (SPONSOR) record must be populated in Trial Summary (TS) domain. It is expected for SDTM IG v3.1.2 data and required for data in all more recent SDTM versions.;Presence;
SD2219;CG0287;Missing TRT Trial Summary Parameter;'Investigational Therapy or Treatment' (TRT) record must be populated in Trial Summary (TS) domain when study type is 'INTERVENTIONAL'. It is expected for SDTM IG v3.1.2 data and required for data in all more recent SDTM versions.;Presence;
SD2221;CG0287;Missing REGID Trial Summary Parameter;'Registry Identifier' (REGID) record may be populated in Trial Summary (TS) domain. It is expected for SDTM IG v3.1.2 data and all more recent SDTM versions.;Presence;
SD2222;CG0287;Missing OUTMSPRI Trial Summary Parameter;'Primary Outcome Measure' (OUTMSPRI) record must be populated in Trial Summary (TS) domain. It is expected for SDTM IG v3.1.2 data and required for data in all more recent SDTM versions.;Presence;
SD2223;CG0287;Missing PCLAS Trial Summary Parameter;'Pharmacological Class of Investigational Therapy' (PCLAS) record must be populated in Trial Summary (TS) domain when study type is 'INTERVENTIONAL' and if Intervention Type (INTTYPE) is one for which pharmacological class is applicable. It is expected for SDTM IG v3.1.2 data and required for data in all more recent SDTM versions.;Presence;
SD2224;CG0287;Missing FCNTRY Trial Summary Parameter;'Planned Country of Investigational Sites' (FCNTRY) record must be populated in Trial Summary (TS) domain. It is expected for SDTM IG v3.1.2 data and required for data in all more recent SDTM versions.;Presence;
SD2225;CG0287;Missing ADAPT Trial Summary Parameter;'Adaptive Design' (ADAPT) record must be populated in Trial Summary (TS) domain. It is expected for SDTM IG v3.1.2 data and required for data in all more recent SDTM versions.;Presence;
SD2226;CG0287;Missing DCUTDTC Trial Summary Parameter;'Data Cutoff Date' (DCUTDTC) record must be populated in Trial Summary (TS) domain. It is expected for SDTM IG v3.1.2 data and required for data in all more recent SDTM versions.;Presence;
SD2227;CG0287;Missing DCUTDESC Trial Summary Parameter;'Data Cutoff Description' (DCUTDESC) record must be populated in Trial Summary (TS) domain. It is expected for SDTM IG v3.1.2 data and required for data in all more recent SDTM versions.;Presence;
SD2228;CG0287;Missing INTMODEL Trial Summary Parameter;'Intervention Model' (INTMODEL) record must be populated in Trial Summary (TS) domain when study type is 'INTERVENTIONAL'. It is expected for SDTM IG v3.1.2 data and required for data in all more recent SDTM versions.;Presence;
SD2229;CG0287;Missing NARMS Trial Summary Parameter;'Planned Number of Arms' (NARMS) record must be populated in Trial Summary (TS) domain. It is expected for SDTM IG v3.1.2 data and required for data in all more recent SDTM versions.;Presence;
SD2230;CG0287;Missing STYPE Trial Summary Parameter;'Study Type' (STYPE) record must be populated in Trial Summary (TS) domain. It is expected for SDTM IG v3.1.2 data and required for data in all more recent SDTM versions.;Presence;
SD2231;CG0287;Missing INTTYPE Trial Summary Parameter;'Intervention Type' (INTTYPE) record must be populated in Trial Summary (TS) domain when study type is 'INTERVENTIONAL'. It is expected for SDTM IG v3.1.2 data and required for data in all more recent SDTM versions.;Presence;
SD2232;eCTD 1734, FDAB011, CG0287;Missing SSTDTC Trial Summary Parameter;'Study Start Date' (SSTDTC) record must be populated in Trial Summary (TS) domain. It is expected for SDTM IG v3.1.2 data and required for data in all more recent SDTM versions.;Presence;Reject
SD2233;CG0287;Missing SENDTC Trial Summary Parameter;'Study End Date' (SENDTC) record must be populated in Trial Summary (TS) domain. It is expected for SDTM IG v3.1.2 data and required for data in all more recent SDTM versions.;Presence;
SD2234;CG0287;Missing ACTSUB Trial Summary Parameter;'Actual Number of Subjects' (ACTSUB) record must be populated in Trial Summary (TS) domain. It is expected for SDTM IG v3.1.2 data and required for data in all more recent SDTM versions.;Presence;
SD2235;CG0287;Missing HLTSUBJI Trial Summary Parameter;'Healthy Subject Indicator' (HLTSUBJI) record must be populated in Trial Summary (TS) domain. It is expected for SDTM IG v3.1.2 data and required for data in all more recent SDTM versions.;Presence;
SD2236;FDAB025, CG0127;ACTARMCD does not equal ARMCD;A value for an Actual Arm Code (ACTARMCD) variable is expected to be equal to a value of an Arm Code (ARMCD) variable.;Consistency;
SD2237;FDAB025, CG0119, CG0122;ACTARM does not equal ARM;A value for an Actual Arm (ACTARM) variable is expected to be equal to a value of an Arm (ARM) variable.;Consistency;
SD2238;;Inconsistent value for --STTPT;Start Reference Time Point (--STTPT) value must be consistent for all records with same Subject (USUBJID) and Start Date/Time (--STDTC) values.;Consistency;
SD2239;;Inconsistent value for --TPT;Planned Time Point Name (--TPT) value must be consistent for all records with same Subject (USUBJID), Visit Num (VISITNUM), Object (--OBJ) and Assessment Date/Time (--DTC).;Consistency;
SD2240;FDAB011, CG0458;Invalid TSVCDREF value for INDIC;TSVCDREF variable value must be 'SNOMED' when TSPARAMCD='INDIC'.;Consistency;
SD2241;FDAB011, CG0444;Invalid TSVCDREF value for CURTRT;TSVCDREF variable value must be 'UNII' when TSPARMCD='CURTRT'.;Consistency;
SD2242;FDAB011, CG0444;Invalid TSVCDREF value for TRT;TSVCDREF variable value must be 'UNII' when TSPARMCD='TRT'.;Consistency;
SD2243;FDAB011, CG0455;Invalid TSVCDREF value for PCLAS;TSVCDREF variable value must be either 'MED-RT' or 'NDF-RT' when TSPARMCD='PCLAS'. (Note: Any version 2018-02-05 or earlier is NDF-RT, and any version after is MED-RT).;Consistency;
SD2244;FDAB011, CG0456;Invalid TSVCDREF value for FCNTRY;TSVCDREF variable value must be 'GENC' (for FDA submissions) or 'ISO 3166-1 alpha-3' when TSPARMCD='FCNTRY'.;Consistency;
SD2245;CG0283;Invalid TSVAL value for DCUTDTC;TSVAL variable value must be in ISO 8601 format when TSPARMCD='DCUTDTC'.;Format;
SD2246;CG0284;Invalid TSVAL value for NARMS;TSVAL variable value must be numeric when TSPARMCD='NARMS'.;Format;
SD2247;eCTD 1734, FDAB011, CG0285;Invalid TSVAL value for SSTDTC;TSVAL variable value must be in ISO 8601 format when TSPARMCD='SSTDTC'.;Format;Reject
SD2247A;eCTD 1734, FDAB011, CG0285;Incomplete date for study start date;TSVAL variable value must be in ISO 8601 format and include at least full date, when TSPARMCD='SSTDTC'.;Format;Reject
SD2248;CG0286;Invalid TSVAL value for SENDTC;TSVAL variable value must be in ISO 8601 format when TSPARMCD='SENDTC'.;Format;
SD2249;CG0457;Invalid TSVAL value for ACTSUB;TSVAL variable value must be numeric when TSPARMCD='ACTSUB'.;Format;
SD2250;CG0442;Invalid TSVAL value for CURTRT;TSVAL for CURTRT record must be a valid preferred term from FDA Substance Registration System (SRS).;Terminology;
SD2251;CG0443;Invalid TSVALCD value for CURTRT;TSVALCD for CURTRT record must be a valid unique ingredient identifier from FDA Substance Registration System (SRS).;Terminology;
SD2252;;TSVAL/TSVALCD value mismatch for CURTRT;TSVAL and TSVALCD values must be populated from the same name record in FDA Substance Registration System (SRS).;Terminology;
SD2253;CG0445;Invalid TSVAL value for COMPTRT;TSVAL for COMPTRT record must be a valid preferred term from FDA Substance Registration System (SRS).;Terminology;
SD2254;CG0446;Invalid TSVALCD value for COMPTRT;TSVALCD for COMPTRT record must be a valid unique ingredient identifier from FDA Substance Registration System (SRS).;Terminology;
SD2255;;TSVAL/TSVALCD value mismatch for COMPTRT;TSVAL and TSVALCD values must be populated from the same name record in FDA Substance Registration System (SRS).;Terminology;
SD2256;CG0444;Invalid TSVCDREF value for COMPTRT;TSVCDREF variable value must be 'UNII' when TSPARMCD='COMPTRT'.;Consistency;
SD2257;CG0448;Invalid TSVAL value for INDIC;TSVAL for INDIC record must be a valid term from SNOMED CT.;Terminology;
SD2258;CG0449;Invalid TSVALCD value for INDIC;TSVALCD for INDIC record must be a valid concept ID from SNOMED CT.;Terminology;
SD2259;FDAB011;TSVAL/TSVALCD value mismatch for INDIC;TSVAL and TSVALCD values must be populated from the same concept description record in SNOMED CT.;Terminology;
SD2260;FDAB011, CG0450;Invalid TSVAL value for TRT;TSVAL for TRT record must be a valid preferred term from FDA Substance Registration System (SRS).;Terminology;
SD2261;FDAB011, CG0451;Invalid TSVALCD value for TRT;TSVALCD for TRT record must be a valid unique ingredient identifier from FDA Substance Registration System (SRS).;Terminology;
SD2262;FDAB011;TSVAL/TSVALCD value mismatch for TRT;TSVAL and TSVALCD values must be populated from the same name record in FDA Substance Registration System (SRS).;Terminology;
SD2263;FDAB011, CG0453;Invalid TSVAL value for PCLAS;TSVAL for PCLAS record must be a valid term from MED-RT or NDF-RT (Note: Any version 2018-02-05 or earlier uses NDF-RT, and any version after is MED-RT).;Terminology;
SD2264;FDAB011, CG0454;Invalid TSVALCD value for PCLAS;TSVALCD for PCLAS record must be a valid code from MED-RT or NDF-RT (Note: Any version 2018-02-05 or earlier uses NDF-RT, and any version after is MED-RT).;Terminology;
SD2265;FDAB011;TSVAL/TSVALCD value mismatch for PCLAS;TSVAL and TSVALCD values must be populated from the same record in MED-RT or NDF-RT (Note: Any version 2018-02-05 or earlier uses NDF-RT, and any version after is MED-RT).;Terminology;
SD2266;FDAB011, CG0458;Invalid TSVCDREF value for TDIGRP;TSVCDREF variable value must be 'SNOMED' when TSPARAMCD='TDIGRP'.;Consistency;
SD2267;FDAB011, CG0448;Invalid TSVAL value for TDIGRP;TSVAL for TDIGRP record must be a valid term from SNOMED CT.;Terminology;
SD2268;FDAB011, CG0449;Invalid TSVALCD value for TDIGRP;TSVALCD for TDIGRP record must be a valid concept ID from SNOMED CT.;Terminology;
SD2269;FDAB011;TSVAL/TSVALCD value mismatch for TDIGRP;TSVAL and TSVALCD values must be populated from the same concept description record in SNOMED CT.;Terminology;
SD2270;FDAB038;Missing --DTC variable when --DY variable is present;Collection Study Date/Time (--DTC) variable should be included into dataset when Collection Study Day (--DY) variable is present.;Presence;
SD2271;FDAB038;Missing --STDTC variable when --STDY variable is present;Start Study Date/Time (--STDTC) variable should be included into dataset when Study Day of Start (--STDY) variable is present.;Presence;
SD2272;FDAB038;Missing --ENDTC variable when --ENDY variable is present;End Study Date/Time (--ENDTC) variable should be included into dataset when Study Day of End (--ENDY) variable is present.;Presence;
SD2273;FDAB011;Missing EXTTIND Trial Summary Parameter;'Extension Trial Indicator' (EXTTIND) record must be populated in Trial Summary (TS) domain. It is an 'FDA Desired' parameter listed in the Technical Conformance Guide (TCG).;Presence;
SD2274;FDAB011;Missing NCOHORT Trial Summary Parameter;'Number of Groups/Cohorts' (NCOHORT) record must be populated in Trial Summary (TS) domain. It is an 'FDA Desired' parameter listed in the Technical Conformance Guide (TCG).;Presence;
SD2275;FDAB011;Missing OBJSEC Trial Summary Parameter;'Trial Secondary Objective' (OBJSEC) record must be populated in Trial Summary (TS) domain. It is an 'FDA Desired' parameter listed in the Technical Conformance Guide (TCG).;Presence;
SD2276;FDAB011;Missing PDPSTIND Trial Summary Parameter;'Pediatric Postmarket Study Indicator' (PDPSTIND) record must be populated in Trial Summary (TS) domain. It is an 'FDA Desired' parameter listed in the Technical Conformance Guide (TCG).;Presence;
SD2277;FDAB011;Missing PDSTIND Trial Summary Parameter;'Pediatric Study Indicator' (PDSTIND) record must be populated in Trial Summary (TS) domain. It is an 'FDA Desired' parameter listed in the Technical Conformance Guide (TCG).;Presence;
SD2278;FDAB011;Missing PIPIND Trial Summary Parameter;'Pediatric Investigation Plan Indicator' (PIPIND) record must be populated in Trial Summary (TS) domain. It is an 'FDA Desired' parameter listed in the Technical Conformance Guide (TCG).;Presence;
SD2279;FDAB011;Missing RDIND Trial Summary Parameter;'Rare Disease Indicator' (RDIND) record must be populated in Trial Summary (TS) domain. It is an 'FDA Desired' parameter listed in the Technical Conformance Guide (TCG).;Presence;
SD2280;FDAB011;Missing SDTIGVER Trial Summary Parameter;'SDTM IG Version' (SDTIGVER) record must be populated in Trial Summary (TS) domain. It is an 'FDA Desired' parameter listed in the Technical Conformance Guide (TCG).;Presence;
SD2281;FDAB011;Missing SDTMVER Trial Summary Parameter;'SDTM Version' (SDTMVER) record must be populated in Trial Summary (TS) domain. It is an 'FDA Desired' parameter listed in the Technical Conformance Guide (TCG).;Presence;
SD2282;FDAB011;Missing THERAREA Trial Summary Parameter;'Therapeutic Area' (THERAREA) record must be populated in Trial Summary (TS) domain. It is an 'FDA Desired' parameter listed in the Technical Conformance Guide (TCG).;Presence;
SD2283;FDAB011, CG0459;Value for TSVALNF not found in ISO 21090;Value for the Null Flavor (TSVALNF) variable must be populated using terms found in ISO 21090.;Terminology;
SD2285;CG0400;Value for --LOINC not found in LOINC coding system;Value for the LOINC Code (--LOINC) variable must be populated using a LOINC coding system version specified in the define.xml.;Terminology;
SD2286;;Missing value for --VAMT when --VAMTU is populated;Treatment Vehicle Amount (--VAMT) should not be null when Treatment Vehicle Amount Units (--VAMTU) is populated.;Consistency;
SD2287;FDAB011;Missing ONGOSIND Trial Summary Parameter;'Ongoing Study Indicator' (ONGOSIND) record must be populated in Trial Summary (TS) domain. It is an 'FDA Desired' parameter listed in the Technical Conformance Guide (TCG).;Presence;
SD2288;;No DISPOSITION EVENT record found for subject;All subjects (USUBJID) should have at least one record in the Disposition (DS) domain with Disposition Category (DSCAT) equal to DISPOSITION EVENT. Subjects with ARMCD='SCRNFAIL', ARMCD = null, or ARMCD='NOTASSGN' are excluded from this check.  If the study is ongoing, Parameter Value (TSVAL) for the 'ONGOSIND/Ongoing Study Indicator' parameter should be set to 'Y' in the Trial Summary (TS) domain.;Presence;
SD9999;CG0321;Dataset class not recognized;The structure for custom dataset should be based on one of the general observation classes (EVENTS, FINDINGS, INTERVENTIONS) defined by the SDTM model.;Presence;