<?xml version="1.0" encoding="UTF-8"?>
<!-- Dataset-XML: Untyped Data Example  --> 
<!-- Built from the SAS XPT files published with the SDTM-MSG (SDTM Metadata Submission Guidelines) V2.0 --> 
<ODM
  xmlns="http://www.cdisc.org/ns/odm/v1.3"
  xmlns:xlink="http://www.w3.org/1999/xlink" 
  xmlns:data="http://www.cdisc.org/ns/Dataset-XML/v1.0"
  FileType="Snapshot"
  ODMVersion="1.3.2"
  data:DatasetXMLVersion="1.0.0"
  FileOID="www.cdisc.org/StudyMSGv2/1/Define-XML_2.1.0(IG.LB).Data(LBCH)"
  PriorFileOID="www.cdisc.org/StudyMSGv2/1/Define-XML_2.1.0"
  CreationDateTime="2020-08-21T09:21:13"
  Originator="CDISC MSG Team"
  SourceSystem="M.Hungria-System"
  SourceSystemVersion="2.1-A1"
  >
  <ClinicalData
    StudyOID="cdisc.com/CDISCPILOT01"
    MetaDataVersionOID="MDV.MSGv2.0.SDTMIG.3.3.SDTM.1.7">
    <!-- Dataset (LBCH) -->
    <ItemGroupData ItemGroupOID="IG.LB" data:ItemGroupDataSeq="1">
      <ItemData ItemOID="IT.LB.STUDYID" Value="CDISCPILOT01"/>
      <ItemData ItemOID="IT.LB.DOMAIN" Value="LB"/>
      <ItemData ItemOID="IT.LB.USUBJID" Value="CDISC001"/>
      <ItemData ItemOID="IT.LB.LBSEQ" Value="1"/>
      <ItemData ItemOID="IT.LB.LBTESTCD" Value="ALB"/>
      <ItemData ItemOID="IT.LB.LBTEST" Value="Albumin"/>
      <ItemData ItemOID="IT.LB.LBCAT" Value="CHEMISTRY"/>
      <ItemData ItemOID="IT.LB.LBORRES" Value="3.9"/>
      <ItemData ItemOID="IT.LB.LBORRESU" Value="g/dL"/>
      <ItemData ItemOID="IT.LB.LBORNRLO" Value="3.5"/>
      <ItemData ItemOID="IT.LB.LBORNRHI" Value="4.6"/>
      <ItemData ItemOID="IT.LB.LBSTRESC" Value="39"/>
      <ItemData ItemOID="IT.LB.LBSTRESN" Value="39"/>
      <ItemData ItemOID="IT.LB.LBSTRESU" Value="g/L"/>
      <ItemData ItemOID="IT.LB.LBSTNRLO" Value="35"/>
      <ItemData ItemOID="IT.LB.LBSTNRHI" Value="46"/>
      <ItemData ItemOID="IT.LB.LBNRIND" Value="NORMAL"/>
      <ItemData ItemOID="IT.LB.LBLOBXFL" Value="Y"/>
      <ItemData ItemOID="IT.LB.VISITNUM" Value="1"/>
      <ItemData ItemOID="IT.LB.VISIT" Value="SCREENING 1"/>
      <ItemData ItemOID="IT.LB.EPOCH" Value="SCREENING"/>
      <ItemData ItemOID="IT.LB.LBDTC" Value="2012-11-23T11:20"/>
      <ItemData ItemOID="IT.LB.LBDY" Value="-7"/>
    </ItemGroupData>
    <ItemGroupData ItemGroupOID="IG.LB" data:ItemGroupDataSeq="2">
      <ItemData ItemOID="IT.LB.STUDYID" Value="CDISCPILOT01"/>
      <ItemData ItemOID="IT.LB.DOMAIN" Value="LB"/>
      <ItemData ItemOID="IT.LB.USUBJID" Value="CDISC001"/>
      <ItemData ItemOID="IT.LB.LBSEQ" Value="2"/>
      <ItemData ItemOID="IT.LB.LBTESTCD" Value="ALP"/>
      <ItemData ItemOID="IT.LB.LBTEST" Value="Alkaline Phosphatase"/>
      <ItemData ItemOID="IT.LB.LBCAT" Value="CHEMISTRY"/>
      <ItemData ItemOID="IT.LB.LBORRES" Value="93"/>
      <ItemData ItemOID="IT.LB.LBORRESU" Value="U/L"/>
      <ItemData ItemOID="IT.LB.LBORNRLO" Value="35"/>
      <ItemData ItemOID="IT.LB.LBORNRHI" Value="115"/>
      <ItemData ItemOID="IT.LB.LBSTRESC" Value="93"/>
      <ItemData ItemOID="IT.LB.LBSTRESN" Value="93"/>
      <ItemData ItemOID="IT.LB.LBSTRESU" Value="U/L"/>
      <ItemData ItemOID="IT.LB.LBSTNRLO" Value="35"/>
      <ItemData ItemOID="IT.LB.LBSTNRHI" Value="115"/>
      <ItemData ItemOID="IT.LB.LBNRIND" Value="NORMAL"/>
      <ItemData ItemOID="IT.LB.LBLOBXFL" Value="Y"/>
      <ItemData ItemOID="IT.LB.VISITNUM" Value="1"/>
      <ItemData ItemOID="IT.LB.VISIT" Value="SCREENING 1"/>
      <ItemData ItemOID="IT.LB.EPOCH" Value="SCREENING"/>
      <ItemData ItemOID="IT.LB.LBDTC" Value="2012-11-23T11:20"/>
      <ItemData ItemOID="IT.LB.LBDY" Value="-7"/>
    </ItemGroupData>
    <ItemGroupData ItemGroupOID="IG.LB" data:ItemGroupDataSeq="3">
      <ItemData ItemOID="IT.LB.STUDYID" Value="CDISCPILOT01"/>
      <ItemData ItemOID="IT.LB.DOMAIN" Value="LB"/>
      <ItemData ItemOID="IT.LB.USUBJID" Value="CDISC001"/>
      <ItemData ItemOID="IT.LB.LBSEQ" Value="3"/>
      <ItemData ItemOID="IT.LB.LBTESTCD" Value="ALT"/>
      <ItemData ItemOID="IT.LB.LBTEST" Value="Alanine Aminotransferase"/>
      <ItemData ItemOID="IT.LB.LBCAT" Value="CHEMISTRY"/>
      <ItemData ItemOID="IT.LB.LBORRES" Value="18"/>
      <ItemData ItemOID="IT.LB.LBORRESU" Value="U/L"/>
      <ItemData ItemOID="IT.LB.LBORNRLO" Value="6"/>
      <ItemData ItemOID="IT.LB.LBORNRHI" Value="35"/>
      <ItemData ItemOID="IT.LB.LBSTRESC" Value="18"/>
      <ItemData ItemOID="IT.LB.LBSTRESN" Value="18"/>
      <ItemData ItemOID="IT.LB.LBSTRESU" Value="U/L"/>
      <ItemData ItemOID="IT.LB.LBSTNRLO" Value="6"/>
      <ItemData ItemOID="IT.LB.LBSTNRHI" Value="35"/>
      <ItemData ItemOID="IT.LB.LBNRIND" Value="NORMAL"/>
      <ItemData ItemOID="IT.LB.LBLOBXFL" Value="Y"/>
      <ItemData ItemOID="IT.LB.VISITNUM" Value="1"/>
      <ItemData ItemOID="IT.LB.VISIT" Value="SCREENING 1"/>
      <ItemData ItemOID="IT.LB.EPOCH" Value="SCREENING"/>
      <ItemData ItemOID="IT.LB.LBDTC" Value="2012-11-23T11:20"/>
      <ItemData ItemOID="IT.LB.LBDY" Value="-7"/>
    </ItemGroupData>
    <ItemGroupData ItemGroupOID="IG.LB" data:ItemGroupDataSeq="4">
      <ItemData ItemOID="IT.LB.STUDYID" Value="CDISCPILOT01"/>
      <ItemData ItemOID="IT.LB.DOMAIN" Value="LB"/>
      <ItemData ItemOID="IT.LB.USUBJID" Value="CDISC001"/>
      <ItemData ItemOID="IT.LB.LBSEQ" Value="4"/>
      <ItemData ItemOID="IT.LB.LBTESTCD" Value="AST"/>
      <ItemData ItemOID="IT.LB.LBTEST" Value="Aspartate Aminotransferase"/>
      <ItemData ItemOID="IT.LB.LBCAT" Value="CHEMISTRY"/>
      <ItemData ItemOID="IT.LB.LBORRES" Value="26"/>
      <ItemData ItemOID="IT.LB.LBORRESU" Value="U/L"/>
      <ItemData ItemOID="IT.LB.LBORNRLO" Value="11"/>
      <ItemData ItemOID="IT.LB.LBORNRHI" Value="36"/>
      <ItemData ItemOID="IT.LB.LBSTRESC" Value="26"/>
      <ItemData ItemOID="IT.LB.LBSTRESN" Value="26"/>
      <ItemData ItemOID="IT.LB.LBSTRESU" Value="U/L"/>
      <ItemData ItemOID="IT.LB.LBSTNRLO" Value="11"/>
      <ItemData ItemOID="IT.LB.LBSTNRHI" Value="36"/>
      <ItemData ItemOID="IT.LB.LBNRIND" Value="NORMAL"/>
      <ItemData ItemOID="IT.LB.LBLOBXFL" Value="Y"/>
      <ItemData ItemOID="IT.LB.VISITNUM" Value="1"/>
      <ItemData ItemOID="IT.LB.VISIT" Value="SCREENING 1"/>
      <ItemData ItemOID="IT.LB.EPOCH" Value="SCREENING"/>
      <ItemData ItemOID="IT.LB.LBDTC" Value="2012-11-23T11:20"/>
      <ItemData ItemOID="IT.LB.LBDY" Value="-7"/>
    </ItemGroupData>
    <ItemGroupData ItemGroupOID="IG.LB" data:ItemGroupDataSeq="5">
      <ItemData ItemOID="IT.LB.STUDYID" Value="CDISCPILOT01"/>
      <ItemData ItemOID="IT.LB.DOMAIN" Value="LB"/>
      <ItemData ItemOID="IT.LB.USUBJID" Value="CDISC001"/>
      <ItemData ItemOID="IT.LB.LBSEQ" Value="6"/>
      <ItemData ItemOID="IT.LB.LBTESTCD" Value="BILI"/>
      <ItemData ItemOID="IT.LB.LBTEST" Value="Bilirubin"/>
      <ItemData ItemOID="IT.LB.LBCAT" Value="CHEMISTRY"/>
      <ItemData ItemOID="IT.LB.LBORRES" Value="0.5"/>
      <ItemData ItemOID="IT.LB.LBORRESU" Value="mg/dL"/>
      <ItemData ItemOID="IT.LB.LBORNRLO" Value="0.2"/>
      <ItemData ItemOID="IT.LB.LBORNRHI" Value="1.2"/>
      <ItemData ItemOID="IT.LB.LBSTRESC" Value="8.55"/>
      <ItemData ItemOID="IT.LB.LBSTRESN" Value="8.55"/>
      <ItemData ItemOID="IT.LB.LBSTRESU" Value="umol/L"/>
      <ItemData ItemOID="IT.LB.LBSTNRLO" Value="3"/>
      <ItemData ItemOID="IT.LB.LBSTNRHI" Value="21"/>
      <ItemData ItemOID="IT.LB.LBNRIND" Value="NORMAL"/>
      <ItemData ItemOID="IT.LB.LBLOBXFL" Value="Y"/>
      <ItemData ItemOID="IT.LB.VISITNUM" Value="1"/>
      <ItemData ItemOID="IT.LB.VISIT" Value="SCREENING 1"/>
      <ItemData ItemOID="IT.LB.EPOCH" Value="SCREENING"/>
      <ItemData ItemOID="IT.LB.LBDTC" Value="2012-11-23T11:20"/>
      <ItemData ItemOID="IT.LB.LBDY" Value="-7"/>
    </ItemGroupData>
    <ItemGroupData ItemGroupOID="IG.LB" data:ItemGroupDataSeq="6">
      <ItemData ItemOID="IT.LB.STUDYID" Value="CDISCPILOT01"/>
      <ItemData ItemOID="IT.LB.DOMAIN" Value="LB"/>
      <ItemData ItemOID="IT.LB.USUBJID" Value="CDISC001"/>
      <ItemData ItemOID="IT.LB.LBSEQ" Value="7"/>
      <ItemData ItemOID="IT.LB.LBTESTCD" Value="UREAN"/>
      <ItemData ItemOID="IT.LB.LBTEST" Value="Urea Nitrogen"/>
      <ItemData ItemOID="IT.LB.LBCAT" Value="CHEMISTRY"/>
      <ItemData ItemOID="IT.LB.LBORRES" Value="21"/>
      <ItemData ItemOID="IT.LB.LBORRESU" Value="mg/dL"/>
      <ItemData ItemOID="IT.LB.LBORNRLO" Value="4"/>
      <ItemData ItemOID="IT.LB.LBORNRHI" Value="24"/>
      <ItemData ItemOID="IT.LB.LBSTRESC" Value="7.497"/>
      <ItemData ItemOID="IT.LB.LBSTRESN" Value="7.497"/>
      <ItemData ItemOID="IT.LB.LBSTRESU" Value="mmol/L"/>
      <ItemData ItemOID="IT.LB.LBSTNRLO" Value="1.4"/>
      <ItemData ItemOID="IT.LB.LBSTNRHI" Value="8.6"/>
      <ItemData ItemOID="IT.LB.LBNRIND" Value="NORMAL"/>
      <ItemData ItemOID="IT.LB.LBLOBXFL" Value="Y"/>
      <ItemData ItemOID="IT.LB.VISITNUM" Value="1"/>
      <ItemData ItemOID="IT.LB.VISIT" Value="SCREENING 1"/>
      <ItemData ItemOID="IT.LB.EPOCH" Value="SCREENING"/>
      <ItemData ItemOID="IT.LB.LBDTC" Value="2012-11-23T11:20"/>
      <ItemData ItemOID="IT.LB.LBDY" Value="-7"/>
    </ItemGroupData>
    <ItemGroupData ItemGroupOID="IG.LB" data:ItemGroupDataSeq="7">
      <ItemData ItemOID="IT.LB.STUDYID" Value="CDISCPILOT01"/>
      <ItemData ItemOID="IT.LB.DOMAIN" Value="LB"/>
      <ItemData ItemOID="IT.LB.USUBJID" Value="CDISC001"/>
      <ItemData ItemOID="IT.LB.LBSEQ" Value="8"/>
      <ItemData ItemOID="IT.LB.LBTESTCD" Value="CA"/>
      <ItemData ItemOID="IT.LB.LBTEST" Value="Calcium"/>
      <ItemData ItemOID="IT.LB.LBCAT" Value="CHEMISTRY"/>
      <ItemData ItemOID="IT.LB.LBORRES" Value="9.1"/>
      <ItemData ItemOID="IT.LB.LBORRESU" Value="mg/dL"/>
      <ItemData ItemOID="IT.LB.LBORNRLO" Value="8.4"/>
      <ItemData ItemOID="IT.LB.LBORNRHI" Value="10.3"/>
      <ItemData ItemOID="IT.LB.LBSTRESC" Value="2.27045"/>
      <ItemData ItemOID="IT.LB.LBSTRESN" Value="2.27045"/>
      <ItemData ItemOID="IT.LB.LBSTRESU" Value="mmol/L"/>
      <ItemData ItemOID="IT.LB.LBSTNRLO" Value="2.1"/>
      <ItemData ItemOID="IT.LB.LBSTNRHI" Value="2.57"/>
      <ItemData ItemOID="IT.LB.LBNRIND" Value="NORMAL"/>
      <ItemData ItemOID="IT.LB.LBLOBXFL" Value="Y"/>
      <ItemData ItemOID="IT.LB.VISITNUM" Value="1"/>
      <ItemData ItemOID="IT.LB.VISIT" Value="SCREENING 1"/>
      <ItemData ItemOID="IT.LB.EPOCH" Value="SCREENING"/>
      <ItemData ItemOID="IT.LB.LBDTC" Value="2012-11-23T11:20"/>
      <ItemData ItemOID="IT.LB.LBDY" Value="-7"/>
    </ItemGroupData>
    <ItemGroupData ItemGroupOID="IG.LB" data:ItemGroupDataSeq="8">
      <ItemData ItemOID="IT.LB.STUDYID" Value="CDISCPILOT01"/>
      <ItemData ItemOID="IT.LB.DOMAIN" Value="LB"/>
      <ItemData ItemOID="IT.LB.USUBJID" Value="CDISC001"/>
      <ItemData ItemOID="IT.LB.LBSEQ" Value="9"/>
      <ItemData ItemOID="IT.LB.LBTESTCD" Value="CHOL"/>
      <ItemData ItemOID="IT.LB.LBTEST" Value="Cholesterol"/>
      <ItemData ItemOID="IT.LB.LBCAT" Value="CHEMISTRY"/>
      <ItemData ItemOID="IT.LB.LBORRES" Value="254"/>
      <ItemData ItemOID="IT.LB.LBORRESU" Value="mg/dL"/>
      <ItemData ItemOID="IT.LB.LBORNRLO" Value="149"/>
      <ItemData ItemOID="IT.LB.LBORNRHI" Value="286"/>
      <ItemData ItemOID="IT.LB.LBSTRESC" Value="6.56844"/>
      <ItemData ItemOID="IT.LB.LBSTRESN" Value="6.56844"/>
      <ItemData ItemOID="IT.LB.LBSTRESU" Value="mmol/L"/>
      <ItemData ItemOID="IT.LB.LBSTNRLO" Value="3.85"/>
      <ItemData ItemOID="IT.LB.LBSTNRHI" Value="7.4"/>
      <ItemData ItemOID="IT.LB.LBNRIND" Value="NORMAL"/>
      <ItemData ItemOID="IT.LB.LBLOBXFL" Value="Y"/>
      <ItemData ItemOID="IT.LB.VISITNUM" Value="1"/>
      <ItemData ItemOID="IT.LB.VISIT" Value="SCREENING 1"/>
      <ItemData ItemOID="IT.LB.EPOCH" Value="SCREENING"/>
      <ItemData ItemOID="IT.LB.LBDTC" Value="2012-11-23T11:20"/>
      <ItemData ItemOID="IT.LB.LBDY" Value="-7"/>
    </ItemGroupData>
    <ItemGroupData ItemGroupOID="IG.LB" data:ItemGroupDataSeq="9">
      <ItemData ItemOID="IT.LB.STUDYID" Value="CDISCPILOT01"/>
      <ItemData ItemOID="IT.LB.DOMAIN" Value="LB"/>
      <ItemData ItemOID="IT.LB.USUBJID" Value="CDISC001"/>
      <ItemData ItemOID="IT.LB.LBSEQ" Value="10"/>
      <ItemData ItemOID="IT.LB.LBTESTCD" Value="CK"/>
      <ItemData ItemOID="IT.LB.LBTEST" Value="Creatine Kinase"/>
      <ItemData ItemOID="IT.LB.LBCAT" Value="CHEMISTRY"/>
      <ItemData ItemOID="IT.LB.LBORRES" Value="79"/>
      <ItemData ItemOID="IT.LB.LBORRESU" Value="U/L"/>
      <ItemData ItemOID="IT.LB.LBORNRLO" Value="22"/>
      <ItemData ItemOID="IT.LB.LBORNRHI" Value="198"/>
      <ItemData ItemOID="IT.LB.LBSTRESC" Value="79"/>
      <ItemData ItemOID="IT.LB.LBSTRESN" Value="79"/>
      <ItemData ItemOID="IT.LB.LBSTRESU" Value="U/L"/>
      <ItemData ItemOID="IT.LB.LBSTNRLO" Value="22"/>
      <ItemData ItemOID="IT.LB.LBSTNRHI" Value="198"/>
      <ItemData ItemOID="IT.LB.LBNRIND" Value="NORMAL"/>
      <ItemData ItemOID="IT.LB.LBLOBXFL" Value="Y"/>
      <ItemData ItemOID="IT.LB.VISITNUM" Value="1"/>
      <ItemData ItemOID="IT.LB.VISIT" Value="SCREENING 1"/>
      <ItemData ItemOID="IT.LB.EPOCH" Value="SCREENING"/>
      <ItemData ItemOID="IT.LB.LBDTC" Value="2012-11-23T11:20"/>
      <ItemData ItemOID="IT.LB.LBDY" Value="-7"/>
    </ItemGroupData>
    <ItemGroupData ItemGroupOID="IG.LB" data:ItemGroupDataSeq="10">
      <ItemData ItemOID="IT.LB.STUDYID" Value="CDISCPILOT01"/>
      <ItemData ItemOID="IT.LB.DOMAIN" Value="LB"/>
      <ItemData ItemOID="IT.LB.USUBJID" Value="CDISC001"/>
      <ItemData ItemOID="IT.LB.LBSEQ" Value="11"/>
      <ItemData ItemOID="IT.LB.LBTESTCD" Value="CL"/>
      <ItemData ItemOID="IT.LB.LBTEST" Value="Chloride"/>
      <ItemData ItemOID="IT.LB.LBCAT" Value="CHEMISTRY"/>
      <ItemData ItemOID="IT.LB.LBORRES" Value="102"/>
      <ItemData ItemOID="IT.LB.LBORRESU" Value="mEq/L"/>
      <ItemData ItemOID="IT.LB.LBORNRLO" Value="94"/>
      <ItemData ItemOID="IT.LB.LBORNRHI" Value="112"/>
      <ItemData ItemOID="IT.LB.LBSTRESC" Value="102"/>
      <ItemData ItemOID="IT.LB.LBSTRESN" Value="102"/>
      <ItemData ItemOID="IT.LB.LBSTRESU" Value="mmol/L"/>
      <ItemData ItemOID="IT.LB.LBSTNRLO" Value="94"/>
      <ItemData ItemOID="IT.LB.LBSTNRHI" Value="112"/>
      <ItemData ItemOID="IT.LB.LBNRIND" Value="NORMAL"/>
      <ItemData ItemOID="IT.LB.LBLOBXFL" Value="Y"/>
      <ItemData ItemOID="IT.LB.VISITNUM" Value="1"/>
      <ItemData ItemOID="IT.LB.VISIT" Value="SCREENING 1"/>
      <ItemData ItemOID="IT.LB.EPOCH" Value="SCREENING"/>
      <ItemData ItemOID="IT.LB.LBDTC" Value="2012-11-23T11:20"/>
      <ItemData ItemOID="IT.LB.LBDY" Value="-7"/>
    </ItemGroupData>
    <ItemGroupData ItemGroupOID="IG.LB" data:ItemGroupDataSeq="11">
      <ItemData ItemOID="IT.LB.STUDYID" Value="CDISCPILOT01"/>
      <ItemData ItemOID="IT.LB.DOMAIN" Value="LB"/>
      <ItemData ItemOID="IT.LB.USUBJID" Value="CDISC001"/>
      <ItemData ItemOID="IT.LB.LBSEQ" Value="13"/>
      <ItemData ItemOID="IT.LB.LBTESTCD" Value="CREAT"/>
      <ItemData ItemOID="IT.LB.LBTEST" Value="Creatinine"/>
      <ItemData ItemOID="IT.LB.LBCAT" Value="CHEMISTRY"/>
      <ItemData ItemOID="IT.LB.LBORRES" Value="1.3"/>
      <ItemData ItemOID="IT.LB.LBORRESU" Value="mg/dL"/>
      <ItemData ItemOID="IT.LB.LBORNRLO" Value="0.8"/>
      <ItemData ItemOID="IT.LB.LBORNRHI" Value="1.6"/>
      <ItemData ItemOID="IT.LB.LBSTRESC" Value="114.92"/>
      <ItemData ItemOID="IT.LB.LBSTRESN" Value="114.92"/>
      <ItemData ItemOID="IT.LB.LBSTRESU" Value="umol/L"/>
      <ItemData ItemOID="IT.LB.LBSTNRLO" Value="71"/>
      <ItemData ItemOID="IT.LB.LBSTNRHI" Value="141"/>
      <ItemData ItemOID="IT.LB.LBNRIND" Value="NORMAL"/>
      <ItemData ItemOID="IT.LB.LBLOBXFL" Value="Y"/>
      <ItemData ItemOID="IT.LB.VISITNUM" Value="1"/>
      <ItemData ItemOID="IT.LB.VISIT" Value="SCREENING 1"/>
      <ItemData ItemOID="IT.LB.EPOCH" Value="SCREENING"/>
      <ItemData ItemOID="IT.LB.LBDTC" Value="2012-11-23T11:20"/>
      <ItemData ItemOID="IT.LB.LBDY" Value="-7"/>
    </ItemGroupData>
    <ItemGroupData ItemGroupOID="IG.LB" data:ItemGroupDataSeq="12">
      <ItemData ItemOID="IT.LB.STUDYID" Value="CDISCPILOT01"/>
      <ItemData ItemOID="IT.LB.DOMAIN" Value="LB"/>
      <ItemData ItemOID="IT.LB.USUBJID" Value="CDISC001"/>
      <ItemData ItemOID="IT.LB.LBSEQ" Value="15"/>
      <ItemData ItemOID="IT.LB.LBTESTCD" Value="GGT"/>
      <ItemData ItemOID="IT.LB.LBTEST" Value="Gamma Glutamyl Transferase"/>
      <ItemData ItemOID="IT.LB.LBCAT" Value="CHEMISTRY"/>
      <ItemData ItemOID="IT.LB.LBORRES" Value="31"/>
      <ItemData ItemOID="IT.LB.LBORRESU" Value="U/L"/>
      <ItemData ItemOID="IT.LB.LBORNRLO" Value="10"/>
      <ItemData ItemOID="IT.LB.LBORNRHI" Value="50"/>
      <ItemData ItemOID="IT.LB.LBSTRESC" Value="31"/>
      <ItemData ItemOID="IT.LB.LBSTRESN" Value="31"/>
      <ItemData ItemOID="IT.LB.LBSTRESU" Value="U/L"/>
      <ItemData ItemOID="IT.LB.LBSTNRLO" Value="10"/>
      <ItemData ItemOID="IT.LB.LBSTNRHI" Value="50"/>
      <ItemData ItemOID="IT.LB.LBNRIND" Value="NORMAL"/>
      <ItemData ItemOID="IT.LB.LBLOBXFL" Value="Y"/>
      <ItemData ItemOID="IT.LB.VISITNUM" Value="1"/>
      <ItemData ItemOID="IT.LB.VISIT" Value="SCREENING 1"/>
      <ItemData ItemOID="IT.LB.EPOCH" Value="SCREENING"/>
      <ItemData ItemOID="IT.LB.LBDTC" Value="2012-11-23T11:20"/>
      <ItemData ItemOID="IT.LB.LBDY" Value="-7"/>
    </ItemGroupData>
    <ItemGroupData ItemGroupOID="IG.LB" data:ItemGroupDataSeq="13">
      <ItemData ItemOID="IT.LB.STUDYID" Value="CDISCPILOT01"/>
      <ItemData ItemOID="IT.LB.DOMAIN" Value="LB"/>
      <ItemData ItemOID="IT.LB.USUBJID" Value="CDISC001"/>
      <ItemData ItemOID="IT.LB.LBSEQ" Value="16"/>
      <ItemData ItemOID="IT.LB.LBTESTCD" Value="GLUC"/>
      <ItemData ItemOID="IT.LB.LBTEST" Value="Glucose"/>
      <ItemData ItemOID="IT.LB.LBCAT" Value="CHEMISTRY"/>
      <ItemData ItemOID="IT.LB.LBORRES" Value="74"/>
      <ItemData ItemOID="IT.LB.LBORRESU" Value="mg/dL"/>
      <ItemData ItemOID="IT.LB.LBORNRLO" Value="50"/>
      <ItemData ItemOID="IT.LB.LBORNRHI" Value="250"/>
      <ItemData ItemOID="IT.LB.LBSTRESC" Value="4.10774"/>
      <ItemData ItemOID="IT.LB.LBSTRESN" Value="4.10774"/>
      <ItemData ItemOID="IT.LB.LBSTRESU" Value="mmol/L"/>
      <ItemData ItemOID="IT.LB.LBSTNRLO" Value="2.8"/>
      <ItemData ItemOID="IT.LB.LBSTNRHI" Value="13.9"/>
      <ItemData ItemOID="IT.LB.LBNRIND" Value="NORMAL"/>
      <ItemData ItemOID="IT.LB.LBLOBXFL" Value="Y"/>
      <ItemData ItemOID="IT.LB.VISITNUM" Value="1"/>
      <ItemData ItemOID="IT.LB.VISIT" Value="SCREENING 1"/>
      <ItemData ItemOID="IT.LB.EPOCH" Value="SCREENING"/>
      <ItemData ItemOID="IT.LB.LBDTC" Value="2012-11-23T11:20"/>
      <ItemData ItemOID="IT.LB.LBDY" Value="-7"/>
    </ItemGroupData>
    <ItemGroupData ItemGroupOID="IG.LB" data:ItemGroupDataSeq="14">
      <ItemData ItemOID="IT.LB.STUDYID" Value="CDISCPILOT01"/>
      <ItemData ItemOID="IT.LB.DOMAIN" Value="LB"/>
      <ItemData ItemOID="IT.LB.USUBJID" Value="CDISC001"/>
      <ItemData ItemOID="IT.LB.LBSEQ" Value="19"/>
      <ItemData ItemOID="IT.LB.LBTESTCD" Value="K"/>
      <ItemData ItemOID="IT.LB.LBTEST" Value="Potassium"/>
      <ItemData ItemOID="IT.LB.LBCAT" Value="CHEMISTRY"/>
      <ItemData ItemOID="IT.LB.LBORRES" Value="4.3"/>
      <ItemData ItemOID="IT.LB.LBORRESU" Value="mEq/L"/>
      <ItemData ItemOID="IT.LB.LBORNRLO" Value="3.4"/>
      <ItemData ItemOID="IT.LB.LBORNRHI" Value="5.4"/>
      <ItemData ItemOID="IT.LB.LBSTRESC" Value="4.3"/>
      <ItemData ItemOID="IT.LB.LBSTRESN" Value="4.3"/>
      <ItemData ItemOID="IT.LB.LBSTRESU" Value="mmol/L"/>
      <ItemData ItemOID="IT.LB.LBSTNRLO" Value="3.4"/>
      <ItemData ItemOID="IT.LB.LBSTNRHI" Value="5.4"/>
      <ItemData ItemOID="IT.LB.LBNRIND" Value="NORMAL"/>
      <ItemData ItemOID="IT.LB.LBLOBXFL" Value="Y"/>
      <ItemData ItemOID="IT.LB.VISITNUM" Value="1"/>
      <ItemData ItemOID="IT.LB.VISIT" Value="SCREENING 1"/>
      <ItemData ItemOID="IT.LB.EPOCH" Value="SCREENING"/>
      <ItemData ItemOID="IT.LB.LBDTC" Value="2012-11-23T11:20"/>
      <ItemData ItemOID="IT.LB.LBDY" Value="-7"/>
    </ItemGroupData>
    <ItemGroupData ItemGroupOID="IG.LB" data:ItemGroupDataSeq="15">
      <ItemData ItemOID="IT.LB.STUDYID" Value="CDISCPILOT01"/>
      <ItemData ItemOID="IT.LB.DOMAIN" Value="LB"/>
      <ItemData ItemOID="IT.LB.USUBJID" Value="CDISC001"/>
      <ItemData ItemOID="IT.LB.LBSEQ" Value="26"/>
      <ItemData ItemOID="IT.LB.LBTESTCD" Value="SODIUM"/>
      <ItemData ItemOID="IT.LB.LBTEST" Value="Sodium"/>
      <ItemData ItemOID="IT.LB.LBCAT" Value="CHEMISTRY"/>
      <ItemData ItemOID="IT.LB.LBORRES" Value="139"/>
      <ItemData ItemOID="IT.LB.LBORRESU" Value="mEq/L"/>
      <ItemData ItemOID="IT.LB.LBORNRLO" Value="135"/>
      <ItemData ItemOID="IT.LB.LBORNRHI" Value="145"/>
      <ItemData ItemOID="IT.LB.LBSTRESC" Value="139"/>
      <ItemData ItemOID="IT.LB.LBSTRESN" Value="139"/>
      <ItemData ItemOID="IT.LB.LBSTRESU" Value="mmol/L"/>
      <ItemData ItemOID="IT.LB.LBSTNRLO" Value="135"/>
      <ItemData ItemOID="IT.LB.LBSTNRHI" Value="145"/>
      <ItemData ItemOID="IT.LB.LBNRIND" Value="NORMAL"/>
      <ItemData ItemOID="IT.LB.LBLOBXFL" Value="Y"/>
      <ItemData ItemOID="IT.LB.VISITNUM" Value="1"/>
      <ItemData ItemOID="IT.LB.VISIT" Value="SCREENING 1"/>
      <ItemData ItemOID="IT.LB.EPOCH" Value="SCREENING"/>
      <ItemData ItemOID="IT.LB.LBDTC" Value="2012-11-23T11:20"/>
      <ItemData ItemOID="IT.LB.LBDY" Value="-7"/>
    </ItemGroupData>
    <ItemGroupData ItemGroupOID="IG.LB" data:ItemGroupDataSeq="16">
      <ItemData ItemOID="IT.LB.STUDYID" Value="CDISCPILOT01"/>
      <ItemData ItemOID="IT.LB.DOMAIN" Value="LB"/>
      <ItemData ItemOID="IT.LB.USUBJID" Value="CDISC001"/>
      <ItemData ItemOID="IT.LB.LBSEQ" Value="28"/>
      <ItemData ItemOID="IT.LB.LBTESTCD" Value="PHOS"/>
      <ItemData ItemOID="IT.LB.LBTEST" Value="Phosphate"/>
      <ItemData ItemOID="IT.LB.LBCAT" Value="CHEMISTRY"/>
      <ItemData ItemOID="IT.LB.LBORRES" Value="3.4"/>
      <ItemData ItemOID="IT.LB.LBORRESU" Value="mg/dL"/>
      <ItemData ItemOID="IT.LB.LBORNRLO" Value="2.2"/>
      <ItemData ItemOID="IT.LB.LBORNRHI" Value="5.1"/>
      <ItemData ItemOID="IT.LB.LBSTRESC" Value="1.09786"/>
      <ItemData ItemOID="IT.LB.LBSTRESN" Value="1.09786"/>
      <ItemData ItemOID="IT.LB.LBSTRESU" Value="mmol/L"/>
      <ItemData ItemOID="IT.LB.LBSTNRLO" Value="0.71"/>
      <ItemData ItemOID="IT.LB.LBSTNRHI" Value="1.65"/>
      <ItemData ItemOID="IT.LB.LBNRIND" Value="NORMAL"/>
      <ItemData ItemOID="IT.LB.LBLOBXFL" Value="Y"/>
      <ItemData ItemOID="IT.LB.VISITNUM" Value="1"/>
      <ItemData ItemOID="IT.LB.VISIT" Value="SCREENING 1"/>
      <ItemData ItemOID="IT.LB.EPOCH" Value="SCREENING"/>
      <ItemData ItemOID="IT.LB.LBDTC" Value="2012-11-23T11:20"/>
      <ItemData ItemOID="IT.LB.LBDY" Value="-7"/>
    </ItemGroupData>
    <ItemGroupData ItemGroupOID="IG.LB" data:ItemGroupDataSeq="17">
      <ItemData ItemOID="IT.LB.STUDYID" Value="CDISCPILOT01"/>
      <ItemData ItemOID="IT.LB.DOMAIN" Value="LB"/>
      <ItemData ItemOID="IT.LB.USUBJID" Value="CDISC001"/>
      <ItemData ItemOID="IT.LB.LBSEQ" Value="30"/>
      <ItemData ItemOID="IT.LB.LBTESTCD" Value="PROT"/>
      <ItemData ItemOID="IT.LB.LBTEST" Value="Protein"/>
      <ItemData ItemOID="IT.LB.LBCAT" Value="CHEMISTRY"/>
      <ItemData ItemOID="IT.LB.LBORRES" Value="6.7"/>
      <ItemData ItemOID="IT.LB.LBORRESU" Value="g/dL"/>
      <ItemData ItemOID="IT.LB.LBORNRLO" Value="6"/>
      <ItemData ItemOID="IT.LB.LBORNRHI" Value="8"/>
      <ItemData ItemOID="IT.LB.LBSTRESC" Value="67"/>
      <ItemData ItemOID="IT.LB.LBSTRESN" Value="67"/>
      <ItemData ItemOID="IT.LB.LBSTRESU" Value="g/L"/>
      <ItemData ItemOID="IT.LB.LBSTNRLO" Value="60"/>
      <ItemData ItemOID="IT.LB.LBSTNRHI" Value="80"/>
      <ItemData ItemOID="IT.LB.LBNRIND" Value="NORMAL"/>
      <ItemData ItemOID="IT.LB.LBLOBXFL" Value="Y"/>
      <ItemData ItemOID="IT.LB.VISITNUM" Value="1"/>
      <ItemData ItemOID="IT.LB.VISIT" Value="SCREENING 1"/>
      <ItemData ItemOID="IT.LB.EPOCH" Value="SCREENING"/>
      <ItemData ItemOID="IT.LB.LBDTC" Value="2012-11-23T11:20"/>
      <ItemData ItemOID="IT.LB.LBDY" Value="-7"/>
    </ItemGroupData>
    <ItemGroupData ItemGroupOID="IG.LB" data:ItemGroupDataSeq="18">
      <ItemData ItemOID="IT.LB.STUDYID" Value="CDISCPILOT01"/>
      <ItemData ItemOID="IT.LB.DOMAIN" Value="LB"/>
      <ItemData ItemOID="IT.LB.USUBJID" Value="CDISC001"/>
      <ItemData ItemOID="IT.LB.LBSEQ" Value="34"/>
      <ItemData ItemOID="IT.LB.LBTESTCD" Value="URATE"/>
      <ItemData ItemOID="IT.LB.LBTEST" Value="Urate"/>
      <ItemData ItemOID="IT.LB.LBCAT" Value="CHEMISTRY"/>
      <ItemData ItemOID="IT.LB.LBORRES" Value="4.9"/>
      <ItemData ItemOID="IT.LB.LBORRESU" Value="mg/dL"/>
      <ItemData ItemOID="IT.LB.LBORNRLO" Value="2.5"/>
      <ItemData ItemOID="IT.LB.LBORNRHI" Value="7.5"/>
      <ItemData ItemOID="IT.LB.LBSTRESC" Value="291.452"/>
      <ItemData ItemOID="IT.LB.LBSTRESN" Value="291.452"/>
      <ItemData ItemOID="IT.LB.LBSTRESU" Value="umol/L"/>
      <ItemData ItemOID="IT.LB.LBSTNRLO" Value="149"/>
      <ItemData ItemOID="IT.LB.LBSTNRHI" Value="446"/>
      <ItemData ItemOID="IT.LB.LBNRIND" Value="NORMAL"/>
      <ItemData ItemOID="IT.LB.LBLOBXFL" Value="Y"/>
      <ItemData ItemOID="IT.LB.VISITNUM" Value="1"/>
      <ItemData ItemOID="IT.LB.VISIT" Value="SCREENING 1"/>
      <ItemData ItemOID="IT.LB.EPOCH" Value="SCREENING"/>
      <ItemData ItemOID="IT.LB.LBDTC" Value="2012-11-23T11:20"/>
      <ItemData ItemOID="IT.LB.LBDY" Value="-7"/>
    </ItemGroupData>
    <ItemGroupData ItemGroupOID="IG.LB" data:ItemGroupDataSeq="19">
      <ItemData ItemOID="IT.LB.STUDYID" Value="CDISCPILOT01"/>
      <ItemData ItemOID="IT.LB.DOMAIN" Value="LB"/>
      <ItemData ItemOID="IT.LB.USUBJID" Value="CDISC001"/>
      <ItemData ItemOID="IT.LB.LBSEQ" Value="38"/>
      <ItemData ItemOID="IT.LB.LBTESTCD" Value="ALB"/>
      <ItemData ItemOID="IT.LB.LBTEST" Value="Albumin"/>
      <ItemData ItemOID="IT.LB.LBCAT" Value="CHEMISTRY"/>
      <ItemData ItemOID="IT.LB.LBORRES" Value="3.6"/>
      <ItemData ItemOID="IT.LB.LBORRESU" Value="g/dL"/>
      <ItemData ItemOID="IT.LB.LBORNRLO" Value="3.5"/>
      <ItemData ItemOID="IT.LB.LBORNRHI" Value="4.6"/>
      <ItemData ItemOID="IT.LB.LBSTRESC" Value="36"/>
      <ItemData ItemOID="IT.LB.LBSTRESN" Value="36"/>
      <ItemData ItemOID="IT.LB.LBSTRESU" Value="g/L"/>
      <ItemData ItemOID="IT.LB.LBSTNRLO" Value="35"/>
      <ItemData ItemOID="IT.LB.LBSTNRHI" Value="46"/>
      <ItemData ItemOID="IT.LB.LBNRIND" Value="NORMAL"/>
      <ItemData ItemOID="IT.LB.VISITNUM" Value="4"/>
      <ItemData ItemOID="IT.LB.VISIT" Value="WEEK 2"/>
      <ItemData ItemOID="IT.LB.EPOCH" Value="TREATMENT"/>
      <ItemData ItemOID="IT.LB.LBDTC" Value="2012-12-13T14:05"/>
      <ItemData ItemOID="IT.LB.LBDY" Value="14"/>
    </ItemGroupData>
    <ItemGroupData ItemGroupOID="IG.LB" data:ItemGroupDataSeq="20">
      <ItemData ItemOID="IT.LB.STUDYID" Value="CDISCPILOT01"/>
      <ItemData ItemOID="IT.LB.DOMAIN" Value="LB"/>
      <ItemData ItemOID="IT.LB.USUBJID" Value="CDISC001"/>
      <ItemData ItemOID="IT.LB.LBSEQ" Value="39"/>
      <ItemData ItemOID="IT.LB.LBTESTCD" Value="ALP"/>
      <ItemData ItemOID="IT.LB.LBTEST" Value="Alkaline Phosphatase"/>
      <ItemData ItemOID="IT.LB.LBCAT" Value="CHEMISTRY"/>
      <ItemData ItemOID="IT.LB.LBORRES" Value="88"/>
      <ItemData ItemOID="IT.LB.LBORRESU" Value="U/L"/>
      <ItemData ItemOID="IT.LB.LBORNRLO" Value="35"/>
      <ItemData ItemOID="IT.LB.LBORNRHI" Value="115"/>
      <ItemData ItemOID="IT.LB.LBSTRESC" Value="88"/>
      <ItemData ItemOID="IT.LB.LBSTRESN" Value="88"/>
      <ItemData ItemOID="IT.LB.LBSTRESU" Value="U/L"/>
      <ItemData ItemOID="IT.LB.LBSTNRLO" Value="35"/>
      <ItemData ItemOID="IT.LB.LBSTNRHI" Value="115"/>
      <ItemData ItemOID="IT.LB.LBNRIND" Value="NORMAL"/>
      <ItemData ItemOID="IT.LB.VISITNUM" Value="4"/>
      <ItemData ItemOID="IT.LB.VISIT" Value="WEEK 2"/>
      <ItemData ItemOID="IT.LB.EPOCH" Value="TREATMENT"/>
      <ItemData ItemOID="IT.LB.LBDTC" Value="2012-12-13T14:05"/>
      <ItemData ItemOID="IT.LB.LBDY" Value="14"/>
    </ItemGroupData>
    <ItemGroupData ItemGroupOID="IG.LB" data:ItemGroupDataSeq="21">
      <ItemData ItemOID="IT.LB.STUDYID" Value="CDISCPILOT01"/>
      <ItemData ItemOID="IT.LB.DOMAIN" Value="LB"/>
      <ItemData ItemOID="IT.LB.USUBJID" Value="CDISC001"/>
      <ItemData ItemOID="IT.LB.LBSEQ" Value="40"/>
      <ItemData ItemOID="IT.LB.LBTESTCD" Value="ALT"/>
      <ItemData ItemOID="IT.LB.LBTEST" Value="Alanine Aminotransferase"/>
      <ItemData ItemOID="IT.LB.LBCAT" Value="CHEMISTRY"/>
      <ItemData ItemOID="IT.LB.LBORRES" Value="15"/>
      <ItemData ItemOID="IT.LB.LBORRESU" Value="U/L"/>
      <ItemData ItemOID="IT.LB.LBORNRLO" Value="6"/>
      <ItemData ItemOID="IT.LB.LBORNRHI" Value="35"/>
      <ItemData ItemOID="IT.LB.LBSTRESC" Value="15"/>
      <ItemData ItemOID="IT.LB.LBSTRESN" Value="15"/>
      <ItemData ItemOID="IT.LB.LBSTRESU" Value="U/L"/>
      <ItemData ItemOID="IT.LB.LBSTNRLO" Value="6"/>
      <ItemData ItemOID="IT.LB.LBSTNRHI" Value="35"/>
      <ItemData ItemOID="IT.LB.LBNRIND" Value="NORMAL"/>
      <ItemData ItemOID="IT.LB.VISITNUM" Value="4"/>
      <ItemData ItemOID="IT.LB.VISIT" Value="WEEK 2"/>
      <ItemData ItemOID="IT.LB.EPOCH" Value="TREATMENT"/>
      <ItemData ItemOID="IT.LB.LBDTC" Value="2012-12-13T14:05"/>
      <ItemData ItemOID="IT.LB.LBDY" Value="14"/>
    </ItemGroupData>
    <ItemGroupData ItemGroupOID="IG.LB" data:ItemGroupDataSeq="22">
      <ItemData ItemOID="IT.LB.STUDYID" Value="CDISCPILOT01"/>
      <ItemData ItemOID="IT.LB.DOMAIN" Value="LB"/>
      <ItemData ItemOID="IT.LB.USUBJID" Value="CDISC001"/>
      <ItemData ItemOID="IT.LB.LBSEQ" Value="41"/>
      <ItemData ItemOID="IT.LB.LBTESTCD" Value="AST"/>
      <ItemData ItemOID="IT.LB.LBTEST" Value="Aspartate Aminotransferase"/>
      <ItemData ItemOID="IT.LB.LBCAT" Value="CHEMISTRY"/>
      <ItemData ItemOID="IT.LB.LBORRES" Value="25"/>
      <ItemData ItemOID="IT.LB.LBORRESU" Value="U/L"/>
      <ItemData ItemOID="IT.LB.LBORNRLO" Value="11"/>
      <ItemData ItemOID="IT.LB.LBORNRHI" Value="36"/>
      <ItemData ItemOID="IT.LB.LBSTRESC" Value="25"/>
      <ItemData ItemOID="IT.LB.LBSTRESN" Value="25"/>
      <ItemData ItemOID="IT.LB.LBSTRESU" Value="U/L"/>
      <ItemData ItemOID="IT.LB.LBSTNRLO" Value="11"/>
      <ItemData ItemOID="IT.LB.LBSTNRHI" Value="36"/>
      <ItemData ItemOID="IT.LB.LBNRIND" Value="NORMAL"/>
      <ItemData ItemOID="IT.LB.VISITNUM" Value="4"/>
      <ItemData ItemOID="IT.LB.VISIT" Value="WEEK 2"/>
      <ItemData ItemOID="IT.LB.EPOCH" Value="TREATMENT"/>
      <ItemData ItemOID="IT.LB.LBDTC" Value="2012-12-13T14:05"/>
      <ItemData ItemOID="IT.LB.LBDY" Value="14"/>
    </ItemGroupData>
    <ItemGroupData ItemGroupOID="IG.LB" data:ItemGroupDataSeq="23">
      <ItemData ItemOID="IT.LB.STUDYID" Value="CDISCPILOT01"/>
      <ItemData ItemOID="IT.LB.DOMAIN" Value="LB"/>
      <ItemData ItemOID="IT.LB.USUBJID" Value="CDISC001"/>
      <ItemData ItemOID="IT.LB.LBSEQ" Value="43"/>
      <ItemData ItemOID="IT.LB.LBTESTCD" Value="BILI"/>
      <ItemData ItemOID="IT.LB.LBTEST" Value="Bilirubin"/>
      <ItemData ItemOID="IT.LB.LBCAT" Value="CHEMISTRY"/>
      <ItemData ItemOID="IT.LB.LBORRES" Value="0.4"/>
      <ItemData ItemOID="IT.LB.LBORRESU" Value="mg/dL"/>
      <ItemData ItemOID="IT.LB.LBORNRLO" Value="0.2"/>
      <ItemData ItemOID="IT.LB.LBORNRHI" Value="1.2"/>
      <ItemData ItemOID="IT.LB.LBSTRESC" Value="6.84"/>
      <ItemData ItemOID="IT.LB.LBSTRESN" Value="6.84"/>
      <ItemData ItemOID="IT.LB.LBSTRESU" Value="umol/L"/>
      <ItemData ItemOID="IT.LB.LBSTNRLO" Value="3"/>
      <ItemData ItemOID="IT.LB.LBSTNRHI" Value="21"/>
      <ItemData ItemOID="IT.LB.LBNRIND" Value="NORMAL"/>
      <ItemData ItemOID="IT.LB.VISITNUM" Value="4"/>
      <ItemData ItemOID="IT.LB.VISIT" Value="WEEK 2"/>
      <ItemData ItemOID="IT.LB.EPOCH" Value="TREATMENT"/>
      <ItemData ItemOID="IT.LB.LBDTC" Value="2012-12-13T14:05"/>
      <ItemData ItemOID="IT.LB.LBDY" Value="14"/>
    </ItemGroupData>
    <ItemGroupData ItemGroupOID="IG.LB" data:ItemGroupDataSeq="24">
      <ItemData ItemOID="IT.LB.STUDYID" Value="CDISCPILOT01"/>
      <ItemData ItemOID="IT.LB.DOMAIN" Value="LB"/>
      <ItemData ItemOID="IT.LB.USUBJID" Value="CDISC001"/>
      <ItemData ItemOID="IT.LB.LBSEQ" Value="44"/>
      <ItemData ItemOID="IT.LB.LBTESTCD" Value="UREAN"/>
      <ItemData ItemOID="IT.LB.LBTEST" Value="Urea Nitrogen"/>
      <ItemData ItemOID="IT.LB.LBCAT" Value="CHEMISTRY"/>
      <ItemData ItemOID="IT.LB.LBORRES" Value="22"/>
      <ItemData ItemOID="IT.LB.LBORRESU" Value="mg/dL"/>
      <ItemData ItemOID="IT.LB.LBORNRLO" Value="4"/>
      <ItemData ItemOID="IT.LB.LBORNRHI" Value="24"/>
      <ItemData ItemOID="IT.LB.LBSTRESC" Value="7.854"/>
      <ItemData ItemOID="IT.LB.LBSTRESN" Value="7.854"/>
      <ItemData ItemOID="IT.LB.LBSTRESU" Value="mmol/L"/>
      <ItemData ItemOID="IT.LB.LBSTNRLO" Value="1.4"/>
      <ItemData ItemOID="IT.LB.LBSTNRHI" Value="8.6"/>
      <ItemData ItemOID="IT.LB.LBNRIND" Value="NORMAL"/>
      <ItemData ItemOID="IT.LB.VISITNUM" Value="4"/>
      <ItemData ItemOID="IT.LB.VISIT" Value="WEEK 2"/>
      <ItemData ItemOID="IT.LB.EPOCH" Value="TREATMENT"/>
      <ItemData ItemOID="IT.LB.LBDTC" Value="2012-12-13T14:05"/>
      <ItemData ItemOID="IT.LB.LBDY" Value="14"/>
    </ItemGroupData>
    <ItemGroupData ItemGroupOID="IG.LB" data:ItemGroupDataSeq="25">
      <ItemData ItemOID="IT.LB.STUDYID" Value="CDISCPILOT01"/>
      <ItemData ItemOID="IT.LB.DOMAIN" Value="LB"/>
      <ItemData ItemOID="IT.LB.USUBJID" Value="CDISC001"/>
      <ItemData ItemOID="IT.LB.LBSEQ" Value="45"/>
      <ItemData ItemOID="IT.LB.LBTESTCD" Value="CA"/>
      <ItemData ItemOID="IT.LB.LBTEST" Value="Calcium"/>
      <ItemData ItemOID="IT.LB.LBCAT" Value="CHEMISTRY"/>
      <ItemData ItemOID="IT.LB.LBORRES" Value="8.9"/>
      <ItemData ItemOID="IT.LB.LBORRESU" Value="mg/dL"/>
      <ItemData ItemOID="IT.LB.LBORNRLO" Value="8.4"/>
      <ItemData ItemOID="IT.LB.LBORNRHI" Value="10.3"/>
      <ItemData ItemOID="IT.LB.LBSTRESC" Value="2.22055"/>
      <ItemData ItemOID="IT.LB.LBSTRESN" Value="2.22055"/>
      <ItemData ItemOID="IT.LB.LBSTRESU" Value="mmol/L"/>
      <ItemData ItemOID="IT.LB.LBSTNRLO" Value="2.1"/>
      <ItemData ItemOID="IT.LB.LBSTNRHI" Value="2.57"/>
      <ItemData ItemOID="IT.LB.LBNRIND" Value="NORMAL"/>
      <ItemData ItemOID="IT.LB.VISITNUM" Value="4"/>
      <ItemData ItemOID="IT.LB.VISIT" Value="WEEK 2"/>
      <ItemData ItemOID="IT.LB.EPOCH" Value="TREATMENT"/>
      <ItemData ItemOID="IT.LB.LBDTC" Value="2012-12-13T14:05"/>
      <ItemData ItemOID="IT.LB.LBDY" Value="14"/>
    </ItemGroupData>
    <ItemGroupData ItemGroupOID="IG.LB" data:ItemGroupDataSeq="26">
      <ItemData ItemOID="IT.LB.STUDYID" Value="CDISCPILOT01"/>
      <ItemData ItemOID="IT.LB.DOMAIN" Value="LB"/>
      <ItemData ItemOID="IT.LB.USUBJID" Value="CDISC001"/>
      <ItemData ItemOID="IT.LB.LBSEQ" Value="46"/>
      <ItemData ItemOID="IT.LB.LBTESTCD" Value="CHOL"/>
      <ItemData ItemOID="IT.LB.LBTEST" Value="Cholesterol"/>
      <ItemData ItemOID="IT.LB.LBCAT" Value="CHEMISTRY"/>
      <ItemData ItemOID="IT.LB.LBORRES" Value="226"/>
      <ItemData ItemOID="IT.LB.LBORRESU" Value="mg/dL"/>
      <ItemData ItemOID="IT.LB.LBORNRLO" Value="149"/>
      <ItemData ItemOID="IT.LB.LBORNRHI" Value="286"/>
      <ItemData ItemOID="IT.LB.LBSTRESC" Value="5.84436"/>
      <ItemData ItemOID="IT.LB.LBSTRESN" Value="5.84436"/>
      <ItemData ItemOID="IT.LB.LBSTRESU" Value="mmol/L"/>
      <ItemData ItemOID="IT.LB.LBSTNRLO" Value="3.85"/>
      <ItemData ItemOID="IT.LB.LBSTNRHI" Value="7.4"/>
      <ItemData ItemOID="IT.LB.LBNRIND" Value="NORMAL"/>
      <ItemData ItemOID="IT.LB.VISITNUM" Value="4"/>
      <ItemData ItemOID="IT.LB.VISIT" Value="WEEK 2"/>
      <ItemData ItemOID="IT.LB.EPOCH" Value="TREATMENT"/>
      <ItemData ItemOID="IT.LB.LBDTC" Value="2012-12-13T14:05"/>
      <ItemData ItemOID="IT.LB.LBDY" Value="14"/>
    </ItemGroupData>
    <ItemGroupData ItemGroupOID="IG.LB" data:ItemGroupDataSeq="27">
      <ItemData ItemOID="IT.LB.STUDYID" Value="CDISCPILOT01"/>
      <ItemData ItemOID="IT.LB.DOMAIN" Value="LB"/>
      <ItemData ItemOID="IT.LB.USUBJID" Value="CDISC001"/>
      <ItemData ItemOID="IT.LB.LBSEQ" Value="47"/>
      <ItemData ItemOID="IT.LB.LBTESTCD" Value="CK"/>
      <ItemData ItemOID="IT.LB.LBTEST" Value="Creatine Kinase"/>
      <ItemData ItemOID="IT.LB.LBCAT" Value="CHEMISTRY"/>
      <ItemData ItemOID="IT.LB.LBORRES" Value="73"/>
      <ItemData ItemOID="IT.LB.LBORRESU" Value="U/L"/>
      <ItemData ItemOID="IT.LB.LBORNRLO" Value="22"/>
      <ItemData ItemOID="IT.LB.LBORNRHI" Value="198"/>
      <ItemData ItemOID="IT.LB.LBSTRESC" Value="73"/>
      <ItemData ItemOID="IT.LB.LBSTRESN" Value="73"/>
      <ItemData ItemOID="IT.LB.LBSTRESU" Value="U/L"/>
      <ItemData ItemOID="IT.LB.LBSTNRLO" Value="22"/>
      <ItemData ItemOID="IT.LB.LBSTNRHI" Value="198"/>
      <ItemData ItemOID="IT.LB.LBNRIND" Value="NORMAL"/>
      <ItemData ItemOID="IT.LB.VISITNUM" Value="4"/>
      <ItemData ItemOID="IT.LB.VISIT" Value="WEEK 2"/>
      <ItemData ItemOID="IT.LB.EPOCH" Value="TREATMENT"/>
      <ItemData ItemOID="IT.LB.LBDTC" Value="2012-12-13T14:05"/>
      <ItemData ItemOID="IT.LB.LBDY" Value="14"/>
    </ItemGroupData>
    <ItemGroupData ItemGroupOID="IG.LB" data:ItemGroupDataSeq="28">
      <ItemData ItemOID="IT.LB.STUDYID" Value="CDISCPILOT01"/>
      <ItemData ItemOID="IT.LB.DOMAIN" Value="LB"/>
      <ItemData ItemOID="IT.LB.USUBJID" Value="CDISC001"/>
      <ItemData ItemOID="IT.LB.LBSEQ" Value="48"/>
      <ItemData ItemOID="IT.LB.LBTESTCD" Value="CL"/>
      <ItemData ItemOID="IT.LB.LBTEST" Value="Chloride"/>
      <ItemData ItemOID="IT.LB.LBCAT" Value="CHEMISTRY"/>
      <ItemData ItemOID="IT.LB.LBORRES" Value="107"/>
      <ItemData ItemOID="IT.LB.LBORRESU" Value="mEq/L"/>
      <ItemData ItemOID="IT.LB.LBORNRLO" Value="94"/>
      <ItemData ItemOID="IT.LB.LBORNRHI" Value="112"/>
      <ItemData ItemOID="IT.LB.LBSTRESC" Value="107"/>
      <ItemData ItemOID="IT.LB.LBSTRESN" Value="107"/>
      <ItemData ItemOID="IT.LB.LBSTRESU" Value="mmol/L"/>
      <ItemData ItemOID="IT.LB.LBSTNRLO" Value="94"/>
      <ItemData ItemOID="IT.LB.LBSTNRHI" Value="112"/>
      <ItemData ItemOID="IT.LB.LBNRIND" Value="NORMAL"/>
      <ItemData ItemOID="IT.LB.VISITNUM" Value="4"/>
      <ItemData ItemOID="IT.LB.VISIT" Value="WEEK 2"/>
      <ItemData ItemOID="IT.LB.EPOCH" Value="TREATMENT"/>
      <ItemData ItemOID="IT.LB.LBDTC" Value="2012-12-13T14:05"/>
      <ItemData ItemOID="IT.LB.LBDY" Value="14"/>
    </ItemGroupData>
    <ItemGroupData ItemGroupOID="IG.LB" data:ItemGroupDataSeq="29">
      <ItemData ItemOID="IT.LB.STUDYID" Value="CDISCPILOT01"/>
      <ItemData ItemOID="IT.LB.DOMAIN" Value="LB"/>
      <ItemData ItemOID="IT.LB.USUBJID" Value="CDISC001"/>
      <ItemData ItemOID="IT.LB.LBSEQ" Value="50"/>
      <ItemData ItemOID="IT.LB.LBTESTCD" Value="CREAT"/>
      <ItemData ItemOID="IT.LB.LBTEST" Value="Creatinine"/>
      <ItemData ItemOID="IT.LB.LBCAT" Value="CHEMISTRY"/>
      <ItemData ItemOID="IT.LB.LBORRES" Value="1.3"/>
      <ItemData ItemOID="IT.LB.LBORRESU" Value="mg/dL"/>
      <ItemData ItemOID="IT.LB.LBORNRLO" Value="0.8"/>
      <ItemData ItemOID="IT.LB.LBORNRHI" Value="1.6"/>
      <ItemData ItemOID="IT.LB.LBSTRESC" Value="114.92"/>
      <ItemData ItemOID="IT.LB.LBSTRESN" Value="114.92"/>
      <ItemData ItemOID="IT.LB.LBSTRESU" Value="umol/L"/>
      <ItemData ItemOID="IT.LB.LBSTNRLO" Value="71"/>
      <ItemData ItemOID="IT.LB.LBSTNRHI" Value="141"/>
      <ItemData ItemOID="IT.LB.LBNRIND" Value="NORMAL"/>
      <ItemData ItemOID="IT.LB.VISITNUM" Value="4"/>
      <ItemData ItemOID="IT.LB.VISIT" Value="WEEK 2"/>
      <ItemData ItemOID="IT.LB.EPOCH" Value="TREATMENT"/>
      <ItemData ItemOID="IT.LB.LBDTC" Value="2012-12-13T14:05"/>
      <ItemData ItemOID="IT.LB.LBDY" Value="14"/>
    </ItemGroupData>
    <ItemGroupData ItemGroupOID="IG.LB" data:ItemGroupDataSeq="30">
      <ItemData ItemOID="IT.LB.STUDYID" Value="CDISCPILOT01"/>
      <ItemData ItemOID="IT.LB.DOMAIN" Value="LB"/>
      <ItemData ItemOID="IT.LB.USUBJID" Value="CDISC001"/>
      <ItemData ItemOID="IT.LB.LBSEQ" Value="52"/>
      <ItemData ItemOID="IT.LB.LBTESTCD" Value="GGT"/>
      <ItemData ItemOID="IT.LB.LBTEST" Value="Gamma Glutamyl Transferase"/>
      <ItemData ItemOID="IT.LB.LBCAT" Value="CHEMISTRY"/>
      <ItemData ItemOID="IT.LB.LBORRES" Value="31"/>
      <ItemData ItemOID="IT.LB.LBORRESU" Value="U/L"/>
      <ItemData ItemOID="IT.LB.LBORNRLO" Value="10"/>
      <ItemData ItemOID="IT.LB.LBORNRHI" Value="50"/>
      <ItemData ItemOID="IT.LB.LBSTRESC" Value="31"/>
      <ItemData ItemOID="IT.LB.LBSTRESN" Value="31"/>
      <ItemData ItemOID="IT.LB.LBSTRESU" Value="U/L"/>
      <ItemData ItemOID="IT.LB.LBSTNRLO" Value="10"/>
      <ItemData ItemOID="IT.LB.LBSTNRHI" Value="50"/>
      <ItemData ItemOID="IT.LB.LBNRIND" Value="NORMAL"/>
      <ItemData ItemOID="IT.LB.VISITNUM" Value="4"/>
      <ItemData ItemOID="IT.LB.VISIT" Value="WEEK 2"/>
      <ItemData ItemOID="IT.LB.EPOCH" Value="TREATMENT"/>
      <ItemData ItemOID="IT.LB.LBDTC" Value="2012-12-13T14:05"/>
      <ItemData ItemOID="IT.LB.LBDY" Value="14"/>
    </ItemGroupData>
    <ItemGroupData ItemGroupOID="IG.LB" data:ItemGroupDataSeq="31">
      <ItemData ItemOID="IT.LB.STUDYID" Value="CDISCPILOT01"/>
      <ItemData ItemOID="IT.LB.DOMAIN" Value="LB"/>
      <ItemData ItemOID="IT.LB.USUBJID" Value="CDISC001"/>
      <ItemData ItemOID="IT.LB.LBSEQ" Value="53"/>
      <ItemData ItemOID="IT.LB.LBTESTCD" Value="GLUC"/>
      <ItemData ItemOID="IT.LB.LBTEST" Value="Glucose"/>
      <ItemData ItemOID="IT.LB.LBCAT" Value="CHEMISTRY"/>
      <ItemData ItemOID="IT.LB.LBORRES" Value="85"/>
      <ItemData ItemOID="IT.LB.LBORRESU" Value="mg/dL"/>
      <ItemData ItemOID="IT.LB.LBORNRLO" Value="50"/>
      <ItemData ItemOID="IT.LB.LBORNRHI" Value="250"/>
      <ItemData ItemOID="IT.LB.LBSTRESC" Value="4.71835"/>
      <ItemData ItemOID="IT.LB.LBSTRESN" Value="4.71835"/>
      <ItemData ItemOID="IT.LB.LBSTRESU" Value="mmol/L"/>
      <ItemData ItemOID="IT.LB.LBSTNRLO" Value="2.8"/>
      <ItemData ItemOID="IT.LB.LBSTNRHI" Value="13.9"/>
      <ItemData ItemOID="IT.LB.LBNRIND" Value="NORMAL"/>
      <ItemData ItemOID="IT.LB.VISITNUM" Value="4"/>
      <ItemData ItemOID="IT.LB.VISIT" Value="WEEK 2"/>
      <ItemData ItemOID="IT.LB.EPOCH" Value="TREATMENT"/>
      <ItemData ItemOID="IT.LB.LBDTC" Value="2012-12-13T14:05"/>
      <ItemData ItemOID="IT.LB.LBDY" Value="14"/>
    </ItemGroupData>
    <ItemGroupData ItemGroupOID="IG.LB" data:ItemGroupDataSeq="32">
      <ItemData ItemOID="IT.LB.STUDYID" Value="CDISCPILOT01"/>
      <ItemData ItemOID="IT.LB.DOMAIN" Value="LB"/>
      <ItemData ItemOID="IT.LB.USUBJID" Value="CDISC001"/>
      <ItemData ItemOID="IT.LB.LBSEQ" Value="56"/>
      <ItemData ItemOID="IT.LB.LBTESTCD" Value="K"/>
      <ItemData ItemOID="IT.LB.LBTEST" Value="Potassium"/>
      <ItemData ItemOID="IT.LB.LBCAT" Value="CHEMISTRY"/>
      <ItemData ItemOID="IT.LB.LBORRES" Value="5.1"/>
      <ItemData ItemOID="IT.LB.LBORRESU" Value="mEq/L"/>
      <ItemData ItemOID="IT.LB.LBORNRLO" Value="3.4"/>
      <ItemData ItemOID="IT.LB.LBORNRHI" Value="5.4"/>
      <ItemData ItemOID="IT.LB.LBSTRESC" Value="5.1"/>
      <ItemData ItemOID="IT.LB.LBSTRESN" Value="5.1"/>
      <ItemData ItemOID="IT.LB.LBSTRESU" Value="mmol/L"/>
      <ItemData ItemOID="IT.LB.LBSTNRLO" Value="3.4"/>
      <ItemData ItemOID="IT.LB.LBSTNRHI" Value="5.4"/>
      <ItemData ItemOID="IT.LB.LBNRIND" Value="NORMAL"/>
      <ItemData ItemOID="IT.LB.VISITNUM" Value="4"/>
      <ItemData ItemOID="IT.LB.VISIT" Value="WEEK 2"/>
      <ItemData ItemOID="IT.LB.EPOCH" Value="TREATMENT"/>
      <ItemData ItemOID="IT.LB.LBDTC" Value="2012-12-13T14:05"/>
      <ItemData ItemOID="IT.LB.LBDY" Value="14"/>
    </ItemGroupData>
    <ItemGroupData ItemGroupOID="IG.LB" data:ItemGroupDataSeq="33">
      <ItemData ItemOID="IT.LB.STUDYID" Value="CDISCPILOT01"/>
      <ItemData ItemOID="IT.LB.DOMAIN" Value="LB"/>
      <ItemData ItemOID="IT.LB.USUBJID" Value="CDISC001"/>
      <ItemData ItemOID="IT.LB.LBSEQ" Value="63"/>
      <ItemData ItemOID="IT.LB.LBTESTCD" Value="SODIUM"/>
      <ItemData ItemOID="IT.LB.LBTEST" Value="Sodium"/>
      <ItemData ItemOID="IT.LB.LBCAT" Value="CHEMISTRY"/>
      <ItemData ItemOID="IT.LB.LBORRES" Value="142"/>
      <ItemData ItemOID="IT.LB.LBORRESU" Value="mEq/L"/>
      <ItemData ItemOID="IT.LB.LBORNRLO" Value="135"/>
      <ItemData ItemOID="IT.LB.LBORNRHI" Value="145"/>
      <ItemData ItemOID="IT.LB.LBSTRESC" Value="142"/>
      <ItemData ItemOID="IT.LB.LBSTRESN" Value="142"/>
      <ItemData ItemOID="IT.LB.LBSTRESU" Value="mmol/L"/>
      <ItemData ItemOID="IT.LB.LBSTNRLO" Value="135"/>
      <ItemData ItemOID="IT.LB.LBSTNRHI" Value="145"/>
      <ItemData ItemOID="IT.LB.LBNRIND" Value="NORMAL"/>
      <ItemData ItemOID="IT.LB.VISITNUM" Value="4"/>
      <ItemData ItemOID="IT.LB.VISIT" Value="WEEK 2"/>
      <ItemData ItemOID="IT.LB.EPOCH" Value="TREATMENT"/>
      <ItemData ItemOID="IT.LB.LBDTC" Value="2012-12-13T14:05"/>
      <ItemData ItemOID="IT.LB.LBDY" Value="14"/>
    </ItemGroupData>
    <ItemGroupData ItemGroupOID="IG.LB" data:ItemGroupDataSeq="34">
      <ItemData ItemOID="IT.LB.STUDYID" Value="CDISCPILOT01"/>
      <ItemData ItemOID="IT.LB.DOMAIN" Value="LB"/>
      <ItemData ItemOID="IT.LB.USUBJID" Value="CDISC001"/>
      <ItemData ItemOID="IT.LB.LBSEQ" Value="65"/>
      <ItemData ItemOID="IT.LB.LBTESTCD" Value="PHOS"/>
      <ItemData ItemOID="IT.LB.LBTEST" Value="Phosphate"/>
      <ItemData ItemOID="IT.LB.LBCAT" Value="CHEMISTRY"/>
      <ItemData ItemOID="IT.LB.LBORRES" Value="3.7"/>
      <ItemData ItemOID="IT.LB.LBORRESU" Value="mg/dL"/>
      <ItemData ItemOID="IT.LB.LBORNRLO" Value="2.2"/>
      <ItemData ItemOID="IT.LB.LBORNRHI" Value="5.1"/>
      <ItemData ItemOID="IT.LB.LBSTRESC" Value="1.19473"/>
      <ItemData ItemOID="IT.LB.LBSTRESN" Value="1.19473"/>
      <ItemData ItemOID="IT.LB.LBSTRESU" Value="mmol/L"/>
      <ItemData ItemOID="IT.LB.LBSTNRLO" Value="0.71"/>
      <ItemData ItemOID="IT.LB.LBSTNRHI" Value="1.65"/>
      <ItemData ItemOID="IT.LB.LBNRIND" Value="NORMAL"/>
      <ItemData ItemOID="IT.LB.VISITNUM" Value="4"/>
      <ItemData ItemOID="IT.LB.VISIT" Value="WEEK 2"/>
      <ItemData ItemOID="IT.LB.EPOCH" Value="TREATMENT"/>
      <ItemData ItemOID="IT.LB.LBDTC" Value="2012-12-13T14:05"/>
      <ItemData ItemOID="IT.LB.LBDY" Value="14"/>
    </ItemGroupData>
    <ItemGroupData ItemGroupOID="IG.LB" data:ItemGroupDataSeq="35">
      <ItemData ItemOID="IT.LB.STUDYID" Value="CDISCPILOT01"/>
      <ItemData ItemOID="IT.LB.DOMAIN" Value="LB"/>
      <ItemData ItemOID="IT.LB.USUBJID" Value="CDISC001"/>
      <ItemData ItemOID="IT.LB.LBSEQ" Value="67"/>
      <ItemData ItemOID="IT.LB.LBTESTCD" Value="PROT"/>
      <ItemData ItemOID="IT.LB.LBTEST" Value="Protein"/>
      <ItemData ItemOID="IT.LB.LBCAT" Value="CHEMISTRY"/>
      <ItemData ItemOID="IT.LB.LBORRES" Value="6.3"/>
      <ItemData ItemOID="IT.LB.LBORRESU" Value="g/dL"/>
      <ItemData ItemOID="IT.LB.LBORNRLO" Value="6"/>
      <ItemData ItemOID="IT.LB.LBORNRHI" Value="8"/>
      <ItemData ItemOID="IT.LB.LBSTRESC" Value="63"/>
      <ItemData ItemOID="IT.LB.LBSTRESN" Value="63"/>
      <ItemData ItemOID="IT.LB.LBSTRESU" Value="g/L"/>
      <ItemData ItemOID="IT.LB.LBSTNRLO" Value="60"/>
      <ItemData ItemOID="IT.LB.LBSTNRHI" Value="80"/>
      <ItemData ItemOID="IT.LB.LBNRIND" Value="NORMAL"/>
      <ItemData ItemOID="IT.LB.VISITNUM" Value="4"/>
      <ItemData ItemOID="IT.LB.VISIT" Value="WEEK 2"/>
      <ItemData ItemOID="IT.LB.EPOCH" Value="TREATMENT"/>
      <ItemData ItemOID="IT.LB.LBDTC" Value="2012-12-13T14:05"/>
      <ItemData ItemOID="IT.LB.LBDY" Value="14"/>
    </ItemGroupData>
    <ItemGroupData ItemGroupOID="IG.LB" data:ItemGroupDataSeq="36">
      <ItemData ItemOID="IT.LB.STUDYID" Value="CDISCPILOT01"/>
      <ItemData ItemOID="IT.LB.DOMAIN" Value="LB"/>
      <ItemData ItemOID="IT.LB.USUBJID" Value="CDISC001"/>
      <ItemData ItemOID="IT.LB.LBSEQ" Value="70"/>
      <ItemData ItemOID="IT.LB.LBTESTCD" Value="URATE"/>
      <ItemData ItemOID="IT.LB.LBTEST" Value="Urate"/>
      <ItemData ItemOID="IT.LB.LBCAT" Value="CHEMISTRY"/>
      <ItemData ItemOID="IT.LB.LBORRES" Value="4.4"/>
      <ItemData ItemOID="IT.LB.LBORRESU" Value="mg/dL"/>
      <ItemData ItemOID="IT.LB.LBORNRLO" Value="2.5"/>
      <ItemData ItemOID="IT.LB.LBORNRHI" Value="7.5"/>
      <ItemData ItemOID="IT.LB.LBSTRESC" Value="261.712"/>
      <ItemData ItemOID="IT.LB.LBSTRESN" Value="261.712"/>
      <ItemData ItemOID="IT.LB.LBSTRESU" Value="umol/L"/>
      <ItemData ItemOID="IT.LB.LBSTNRLO" Value="149"/>
      <ItemData ItemOID="IT.LB.LBSTNRHI" Value="446"/>
      <ItemData ItemOID="IT.LB.LBNRIND" Value="NORMAL"/>
      <ItemData ItemOID="IT.LB.VISITNUM" Value="4"/>
      <ItemData ItemOID="IT.LB.VISIT" Value="WEEK 2"/>
      <ItemData ItemOID="IT.LB.EPOCH" Value="TREATMENT"/>
      <ItemData ItemOID="IT.LB.LBDTC" Value="2012-12-13T14:05"/>
      <ItemData ItemOID="IT.LB.LBDY" Value="14"/>
    </ItemGroupData>
    <ItemGroupData ItemGroupOID="IG.LB" data:ItemGroupDataSeq="37">
      <ItemData ItemOID="IT.LB.STUDYID" Value="CDISCPILOT01"/>
      <ItemData ItemOID="IT.LB.DOMAIN" Value="LB"/>
      <ItemData ItemOID="IT.LB.USUBJID" Value="CDISC001"/>
      <ItemData ItemOID="IT.LB.LBSEQ" Value="73"/>
      <ItemData ItemOID="IT.LB.LBTESTCD" Value="ALB"/>
      <ItemData ItemOID="IT.LB.LBTEST" Value="Albumin"/>
      <ItemData ItemOID="IT.LB.LBCAT" Value="CHEMISTRY"/>
      <ItemData ItemOID="IT.LB.LBORRES" Value="3.5"/>
      <ItemData ItemOID="IT.LB.LBORRESU" Value="g/dL"/>
      <ItemData ItemOID="IT.LB.LBORNRLO" Value="3.5"/>
      <ItemData ItemOID="IT.LB.LBORNRHI" Value="4.6"/>
      <ItemData ItemOID="IT.LB.LBSTRESC" Value="35"/>
      <ItemData ItemOID="IT.LB.LBSTRESN" Value="35"/>
      <ItemData ItemOID="IT.LB.LBSTRESU" Value="g/L"/>
      <ItemData ItemOID="IT.LB.LBSTNRLO" Value="35"/>
      <ItemData ItemOID="IT.LB.LBSTNRHI" Value="46"/>
      <ItemData ItemOID="IT.LB.LBNRIND" Value="NORMAL"/>
      <ItemData ItemOID="IT.LB.VISITNUM" Value="5"/>
      <ItemData ItemOID="IT.LB.VISIT" Value="WEEK 4"/>
      <ItemData ItemOID="IT.LB.EPOCH" Value="TREATMENT"/>
      <ItemData ItemOID="IT.LB.LBDTC" Value="2012-12-26T08:44"/>
      <ItemData ItemOID="IT.LB.LBDY" Value="27"/>
    </ItemGroupData>
    <ItemGroupData ItemGroupOID="IG.LB" data:ItemGroupDataSeq="38">
      <ItemData ItemOID="IT.LB.STUDYID" Value="CDISCPILOT01"/>
      <ItemData ItemOID="IT.LB.DOMAIN" Value="LB"/>
      <ItemData ItemOID="IT.LB.USUBJID" Value="CDISC001"/>
      <ItemData ItemOID="IT.LB.LBSEQ" Value="74"/>
      <ItemData ItemOID="IT.LB.LBTESTCD" Value="ALP"/>
      <ItemData ItemOID="IT.LB.LBTEST" Value="Alkaline Phosphatase"/>
      <ItemData ItemOID="IT.LB.LBCAT" Value="CHEMISTRY"/>
      <ItemData ItemOID="IT.LB.LBORRES" Value="91"/>
      <ItemData ItemOID="IT.LB.LBORRESU" Value="U/L"/>
      <ItemData ItemOID="IT.LB.LBORNRLO" Value="35"/>
      <ItemData ItemOID="IT.LB.LBORNRHI" Value="115"/>
      <ItemData ItemOID="IT.LB.LBSTRESC" Value="91"/>
      <ItemData ItemOID="IT.LB.LBSTRESN" Value="91"/>
      <ItemData ItemOID="IT.LB.LBSTRESU" Value="U/L"/>
      <ItemData ItemOID="IT.LB.LBSTNRLO" Value="35"/>
      <ItemData ItemOID="IT.LB.LBSTNRHI" Value="115"/>
      <ItemData ItemOID="IT.LB.LBNRIND" Value="NORMAL"/>
      <ItemData ItemOID="IT.LB.VISITNUM" Value="5"/>
      <ItemData ItemOID="IT.LB.VISIT" Value="WEEK 4"/>
      <ItemData ItemOID="IT.LB.EPOCH" Value="TREATMENT"/>
      <ItemData ItemOID="IT.LB.LBDTC" Value="2012-12-26T08:44"/>
      <ItemData ItemOID="IT.LB.LBDY" Value="27"/>
    </ItemGroupData>
    <ItemGroupData ItemGroupOID="IG.LB" data:ItemGroupDataSeq="39">
      <ItemData ItemOID="IT.LB.STUDYID" Value="CDISCPILOT01"/>
      <ItemData ItemOID="IT.LB.DOMAIN" Value="LB"/>
      <ItemData ItemOID="IT.LB.USUBJID" Value="CDISC001"/>
      <ItemData ItemOID="IT.LB.LBSEQ" Value="75"/>
      <ItemData ItemOID="IT.LB.LBTESTCD" Value="ALT"/>
      <ItemData ItemOID="IT.LB.LBTEST" Value="Alanine Aminotransferase"/>
      <ItemData ItemOID="IT.LB.LBCAT" Value="CHEMISTRY"/>
      <ItemData ItemOID="IT.LB.LBORRES" Value="13"/>
      <ItemData ItemOID="IT.LB.LBORRESU" Value="U/L"/>
      <ItemData ItemOID="IT.LB.LBORNRLO" Value="6"/>
      <ItemData ItemOID="IT.LB.LBORNRHI" Value="35"/>
      <ItemData ItemOID="IT.LB.LBSTRESC" Value="13"/>
      <ItemData ItemOID="IT.LB.LBSTRESN" Value="13"/>
      <ItemData ItemOID="IT.LB.LBSTRESU" Value="U/L"/>
      <ItemData ItemOID="IT.LB.LBSTNRLO" Value="6"/>
      <ItemData ItemOID="IT.LB.LBSTNRHI" Value="35"/>
      <ItemData ItemOID="IT.LB.LBNRIND" Value="NORMAL"/>
      <ItemData ItemOID="IT.LB.VISITNUM" Value="5"/>
      <ItemData ItemOID="IT.LB.VISIT" Value="WEEK 4"/>
      <ItemData ItemOID="IT.LB.EPOCH" Value="TREATMENT"/>
      <ItemData ItemOID="IT.LB.LBDTC" Value="2012-12-26T08:44"/>
      <ItemData ItemOID="IT.LB.LBDY" Value="27"/>
    </ItemGroupData>
    <ItemGroupData ItemGroupOID="IG.LB" data:ItemGroupDataSeq="40">
      <ItemData ItemOID="IT.LB.STUDYID" Value="CDISCPILOT01"/>
      <ItemData ItemOID="IT.LB.DOMAIN" Value="LB"/>
      <ItemData ItemOID="IT.LB.USUBJID" Value="CDISC001"/>
      <ItemData ItemOID="IT.LB.LBSEQ" Value="76"/>
      <ItemData ItemOID="IT.LB.LBTESTCD" Value="AST"/>
      <ItemData ItemOID="IT.LB.LBTEST" Value="Aspartate Aminotransferase"/>
      <ItemData ItemOID="IT.LB.LBCAT" Value="CHEMISTRY"/>
      <ItemData ItemOID="IT.LB.LBORRES" Value="20"/>
      <ItemData ItemOID="IT.LB.LBORRESU" Value="U/L"/>
      <ItemData ItemOID="IT.LB.LBORNRLO" Value="11"/>
      <ItemData ItemOID="IT.LB.LBORNRHI" Value="36"/>
      <ItemData ItemOID="IT.LB.LBSTRESC" Value="20"/>
      <ItemData ItemOID="IT.LB.LBSTRESN" Value="20"/>
      <ItemData ItemOID="IT.LB.LBSTRESU" Value="U/L"/>
      <ItemData ItemOID="IT.LB.LBSTNRLO" Value="11"/>
      <ItemData ItemOID="IT.LB.LBSTNRHI" Value="36"/>
      <ItemData ItemOID="IT.LB.LBNRIND" Value="NORMAL"/>
      <ItemData ItemOID="IT.LB.VISITNUM" Value="5"/>
      <ItemData ItemOID="IT.LB.VISIT" Value="WEEK 4"/>
      <ItemData ItemOID="IT.LB.EPOCH" Value="TREATMENT"/>
      <ItemData ItemOID="IT.LB.LBDTC" Value="2012-12-26T08:44"/>
      <ItemData ItemOID="IT.LB.LBDY" Value="27"/>
    </ItemGroupData>
    <ItemGroupData ItemGroupOID="IG.LB" data:ItemGroupDataSeq="41">
      <ItemData ItemOID="IT.LB.STUDYID" Value="CDISCPILOT01"/>
      <ItemData ItemOID="IT.LB.DOMAIN" Value="LB"/>
      <ItemData ItemOID="IT.LB.USUBJID" Value="CDISC001"/>
      <ItemData ItemOID="IT.LB.LBSEQ" Value="78"/>
      <ItemData ItemOID="IT.LB.LBTESTCD" Value="BILI"/>
      <ItemData ItemOID="IT.LB.LBTEST" Value="Bilirubin"/>
      <ItemData ItemOID="IT.LB.LBCAT" Value="CHEMISTRY"/>
      <ItemData ItemOID="IT.LB.LBORRES" Value="0.4"/>
      <ItemData ItemOID="IT.LB.LBORRESU" Value="mg/dL"/>
      <ItemData ItemOID="IT.LB.LBORNRLO" Value="0.2"/>
      <ItemData ItemOID="IT.LB.LBORNRHI" Value="1.2"/>
      <ItemData ItemOID="IT.LB.LBSTRESC" Value="6.84"/>
      <ItemData ItemOID="IT.LB.LBSTRESN" Value="6.84"/>
      <ItemData ItemOID="IT.LB.LBSTRESU" Value="umol/L"/>
      <ItemData ItemOID="IT.LB.LBSTNRLO" Value="3"/>
      <ItemData ItemOID="IT.LB.LBSTNRHI" Value="21"/>
      <ItemData ItemOID="IT.LB.LBNRIND" Value="NORMAL"/>
      <ItemData ItemOID="IT.LB.VISITNUM" Value="5"/>
      <ItemData ItemOID="IT.LB.VISIT" Value="WEEK 4"/>
      <ItemData ItemOID="IT.LB.EPOCH" Value="TREATMENT"/>
      <ItemData ItemOID="IT.LB.LBDTC" Value="2012-12-26T08:44"/>
      <ItemData ItemOID="IT.LB.LBDY" Value="27"/>
    </ItemGroupData>
    <ItemGroupData ItemGroupOID="IG.LB" data:ItemGroupDataSeq="42">
      <ItemData ItemOID="IT.LB.STUDYID" Value="CDISCPILOT01"/>
      <ItemData ItemOID="IT.LB.DOMAIN" Value="LB"/>
      <ItemData ItemOID="IT.LB.USUBJID" Value="CDISC001"/>
      <ItemData ItemOID="IT.LB.LBSEQ" Value="79"/>
      <ItemData ItemOID="IT.LB.LBTESTCD" Value="UREAN"/>
      <ItemData ItemOID="IT.LB.LBTEST" Value="Urea Nitrogen"/>
      <ItemData ItemOID="IT.LB.LBCAT" Value="CHEMISTRY"/>
      <ItemData ItemOID="IT.LB.LBORRES" Value="20"/>
      <ItemData ItemOID="IT.LB.LBORRESU" Value="mg/dL"/>
      <ItemData ItemOID="IT.LB.LBORNRLO" Value="4"/>
      <ItemData ItemOID="IT.LB.LBORNRHI" Value="24"/>
      <ItemData ItemOID="IT.LB.LBSTRESC" Value="7.14"/>
      <ItemData ItemOID="IT.LB.LBSTRESN" Value="7.14"/>
      <ItemData ItemOID="IT.LB.LBSTRESU" Value="mmol/L"/>
      <ItemData ItemOID="IT.LB.LBSTNRLO" Value="1.4"/>
      <ItemData ItemOID="IT.LB.LBSTNRHI" Value="8.6"/>
      <ItemData ItemOID="IT.LB.LBNRIND" Value="NORMAL"/>
      <ItemData ItemOID="IT.LB.VISITNUM" Value="5"/>
      <ItemData ItemOID="IT.LB.VISIT" Value="WEEK 4"/>
      <ItemData ItemOID="IT.LB.EPOCH" Value="TREATMENT"/>
      <ItemData ItemOID="IT.LB.LBDTC" Value="2012-12-26T08:44"/>
      <ItemData ItemOID="IT.LB.LBDY" Value="27"/>
    </ItemGroupData>
    <ItemGroupData ItemGroupOID="IG.LB" data:ItemGroupDataSeq="43">
      <ItemData ItemOID="IT.LB.STUDYID" Value="CDISCPILOT01"/>
      <ItemData ItemOID="IT.LB.DOMAIN" Value="LB"/>
      <ItemData ItemOID="IT.LB.USUBJID" Value="CDISC001"/>
      <ItemData ItemOID="IT.LB.LBSEQ" Value="80"/>
      <ItemData ItemOID="IT.LB.LBTESTCD" Value="CA"/>
      <ItemData ItemOID="IT.LB.LBTEST" Value="Calcium"/>
      <ItemData ItemOID="IT.LB.LBCAT" Value="CHEMISTRY"/>
      <ItemData ItemOID="IT.LB.LBORRES" Value="9.2"/>
      <ItemData ItemOID="IT.LB.LBORRESU" Value="mg/dL"/>
      <ItemData ItemOID="IT.LB.LBORNRLO" Value="8.4"/>
      <ItemData ItemOID="IT.LB.LBORNRHI" Value="10.3"/>
      <ItemData ItemOID="IT.LB.LBSTRESC" Value="2.2954"/>
      <ItemData ItemOID="IT.LB.LBSTRESN" Value="2.2954"/>
      <ItemData ItemOID="IT.LB.LBSTRESU" Value="mmol/L"/>
      <ItemData ItemOID="IT.LB.LBSTNRLO" Value="2.1"/>
      <ItemData ItemOID="IT.LB.LBSTNRHI" Value="2.57"/>
      <ItemData ItemOID="IT.LB.LBNRIND" Value="NORMAL"/>
      <ItemData ItemOID="IT.LB.VISITNUM" Value="5"/>
      <ItemData ItemOID="IT.LB.VISIT" Value="WEEK 4"/>
      <ItemData ItemOID="IT.LB.EPOCH" Value="TREATMENT"/>
      <ItemData ItemOID="IT.LB.LBDTC" Value="2012-12-26T08:44"/>
      <ItemData ItemOID="IT.LB.LBDY" Value="27"/>
    </ItemGroupData>
    <ItemGroupData ItemGroupOID="IG.LB" data:ItemGroupDataSeq="44">
      <ItemData ItemOID="IT.LB.STUDYID" Value="CDISCPILOT01"/>
      <ItemData ItemOID="IT.LB.DOMAIN" Value="LB"/>
      <ItemData ItemOID="IT.LB.USUBJID" Value="CDISC001"/>
      <ItemData ItemOID="IT.LB.LBSEQ" Value="81"/>
      <ItemData ItemOID="IT.LB.LBTESTCD" Value="CHOL"/>
      <ItemData ItemOID="IT.LB.LBTEST" Value="Cholesterol"/>
      <ItemData ItemOID="IT.LB.LBCAT" Value="CHEMISTRY"/>
      <ItemData ItemOID="IT.LB.LBORRES" Value="219"/>
      <ItemData ItemOID="IT.LB.LBORRESU" Value="mg/dL"/>
      <ItemData ItemOID="IT.LB.LBORNRLO" Value="149"/>
      <ItemData ItemOID="IT.LB.LBORNRHI" Value="286"/>
      <ItemData ItemOID="IT.LB.LBSTRESC" Value="5.66334"/>
      <ItemData ItemOID="IT.LB.LBSTRESN" Value="5.66334"/>
      <ItemData ItemOID="IT.LB.LBSTRESU" Value="mmol/L"/>
      <ItemData ItemOID="IT.LB.LBSTNRLO" Value="3.85"/>
      <ItemData ItemOID="IT.LB.LBSTNRHI" Value="7.4"/>
      <ItemData ItemOID="IT.LB.LBNRIND" Value="NORMAL"/>
      <ItemData ItemOID="IT.LB.VISITNUM" Value="5"/>
      <ItemData ItemOID="IT.LB.VISIT" Value="WEEK 4"/>
      <ItemData ItemOID="IT.LB.EPOCH" Value="TREATMENT"/>
      <ItemData ItemOID="IT.LB.LBDTC" Value="2012-12-26T08:44"/>
      <ItemData ItemOID="IT.LB.LBDY" Value="27"/>
    </ItemGroupData>
    <ItemGroupData ItemGroupOID="IG.LB" data:ItemGroupDataSeq="45">
      <ItemData ItemOID="IT.LB.STUDYID" Value="CDISCPILOT01"/>
      <ItemData ItemOID="IT.LB.DOMAIN" Value="LB"/>
      <ItemData ItemOID="IT.LB.USUBJID" Value="CDISC001"/>
      <ItemData ItemOID="IT.LB.LBSEQ" Value="82"/>
      <ItemData ItemOID="IT.LB.LBTESTCD" Value="CK"/>
      <ItemData ItemOID="IT.LB.LBTEST" Value="Creatine Kinase"/>
      <ItemData ItemOID="IT.LB.LBCAT" Value="CHEMISTRY"/>
      <ItemData ItemOID="IT.LB.LBORRES" Value="75"/>
      <ItemData ItemOID="IT.LB.LBORRESU" Value="U/L"/>
      <ItemData ItemOID="IT.LB.LBORNRLO" Value="22"/>
      <ItemData ItemOID="IT.LB.LBORNRHI" Value="198"/>
      <ItemData ItemOID="IT.LB.LBSTRESC" Value="75"/>
      <ItemData ItemOID="IT.LB.LBSTRESN" Value="75"/>
      <ItemData ItemOID="IT.LB.LBSTRESU" Value="U/L"/>
      <ItemData ItemOID="IT.LB.LBSTNRLO" Value="22"/>
      <ItemData ItemOID="IT.LB.LBSTNRHI" Value="198"/>
      <ItemData ItemOID="IT.LB.LBNRIND" Value="NORMAL"/>
      <ItemData ItemOID="IT.LB.VISITNUM" Value="5"/>
      <ItemData ItemOID="IT.LB.VISIT" Value="WEEK 4"/>
      <ItemData ItemOID="IT.LB.EPOCH" Value="TREATMENT"/>
      <ItemData ItemOID="IT.LB.LBDTC" Value="2012-12-26T08:44"/>
      <ItemData ItemOID="IT.LB.LBDY" Value="27"/>
    </ItemGroupData>
    <ItemGroupData ItemGroupOID="IG.LB" data:ItemGroupDataSeq="46">
      <ItemData ItemOID="IT.LB.STUDYID" Value="CDISCPILOT01"/>
      <ItemData ItemOID="IT.LB.DOMAIN" Value="LB"/>
      <ItemData ItemOID="IT.LB.USUBJID" Value="CDISC001"/>
      <ItemData ItemOID="IT.LB.LBSEQ" Value="83"/>
      <ItemData ItemOID="IT.LB.LBTESTCD" Value="CL"/>
      <ItemData ItemOID="IT.LB.LBTEST" Value="Chloride"/>
      <ItemData ItemOID="IT.LB.LBCAT" Value="CHEMISTRY"/>
      <ItemData ItemOID="IT.LB.LBORRES" Value="106"/>
      <ItemData ItemOID="IT.LB.LBORRESU" Value="mEq/L"/>
      <ItemData ItemOID="IT.LB.LBORNRLO" Value="94"/>
      <ItemData ItemOID="IT.LB.LBORNRHI" Value="112"/>
      <ItemData ItemOID="IT.LB.LBSTRESC" Value="106"/>
      <ItemData ItemOID="IT.LB.LBSTRESN" Value="106"/>
      <ItemData ItemOID="IT.LB.LBSTRESU" Value="mmol/L"/>
      <ItemData ItemOID="IT.LB.LBSTNRLO" Value="94"/>
      <ItemData ItemOID="IT.LB.LBSTNRHI" Value="112"/>
      <ItemData ItemOID="IT.LB.LBNRIND" Value="NORMAL"/>
      <ItemData ItemOID="IT.LB.VISITNUM" Value="5"/>
      <ItemData ItemOID="IT.LB.VISIT" Value="WEEK 4"/>
      <ItemData ItemOID="IT.LB.EPOCH" Value="TREATMENT"/>
      <ItemData ItemOID="IT.LB.LBDTC" Value="2012-12-26T08:44"/>
      <ItemData ItemOID="IT.LB.LBDY" Value="27"/>
    </ItemGroupData>
    <ItemGroupData ItemGroupOID="IG.LB" data:ItemGroupDataSeq="47">
      <ItemData ItemOID="IT.LB.STUDYID" Value="CDISCPILOT01"/>
      <ItemData ItemOID="IT.LB.DOMAIN" Value="LB"/>
      <ItemData ItemOID="IT.LB.USUBJID" Value="CDISC001"/>
      <ItemData ItemOID="IT.LB.LBSEQ" Value="84"/>
      <ItemData ItemOID="IT.LB.LBTESTCD" Value="CREAT"/>
      <ItemData ItemOID="IT.LB.LBTEST" Value="Creatinine"/>
      <ItemData ItemOID="IT.LB.LBCAT" Value="CHEMISTRY"/>
      <ItemData ItemOID="IT.LB.LBORRES" Value="1.3"/>
      <ItemData ItemOID="IT.LB.LBORRESU" Value="mg/dL"/>
      <ItemData ItemOID="IT.LB.LBORNRLO" Value="0.8"/>
      <ItemData ItemOID="IT.LB.LBORNRHI" Value="1.6"/>
      <ItemData ItemOID="IT.LB.LBSTRESC" Value="114.92"/>
      <ItemData ItemOID="IT.LB.LBSTRESN" Value="114.92"/>
      <ItemData ItemOID="IT.LB.LBSTRESU" Value="umol/L"/>
      <ItemData ItemOID="IT.LB.LBSTNRLO" Value="71"/>
      <ItemData ItemOID="IT.LB.LBSTNRHI" Value="141"/>
      <ItemData ItemOID="IT.LB.LBNRIND" Value="NORMAL"/>
      <ItemData ItemOID="IT.LB.VISITNUM" Value="5"/>
      <ItemData ItemOID="IT.LB.VISIT" Value="WEEK 4"/>
      <ItemData ItemOID="IT.LB.EPOCH" Value="TREATMENT"/>
      <ItemData ItemOID="IT.LB.LBDTC" Value="2012-12-26T08:44"/>
      <ItemData ItemOID="IT.LB.LBDY" Value="27"/>
    </ItemGroupData>
    <ItemGroupData ItemGroupOID="IG.LB" data:ItemGroupDataSeq="48">
      <ItemData ItemOID="IT.LB.STUDYID" Value="CDISCPILOT01"/>
      <ItemData ItemOID="IT.LB.DOMAIN" Value="LB"/>
      <ItemData ItemOID="IT.LB.USUBJID" Value="CDISC001"/>
      <ItemData ItemOID="IT.LB.LBSEQ" Value="86"/>
      <ItemData ItemOID="IT.LB.LBTESTCD" Value="GGT"/>
      <ItemData ItemOID="IT.LB.LBTEST" Value="Gamma Glutamyl Transferase"/>
      <ItemData ItemOID="IT.LB.LBCAT" Value="CHEMISTRY"/>
      <ItemData ItemOID="IT.LB.LBORRES" Value="30"/>
      <ItemData ItemOID="IT.LB.LBORRESU" Value="U/L"/>
      <ItemData ItemOID="IT.LB.LBORNRLO" Value="10"/>
      <ItemData ItemOID="IT.LB.LBORNRHI" Value="50"/>
      <ItemData ItemOID="IT.LB.LBSTRESC" Value="30"/>
      <ItemData ItemOID="IT.LB.LBSTRESN" Value="30"/>
      <ItemData ItemOID="IT.LB.LBSTRESU" Value="U/L"/>
      <ItemData ItemOID="IT.LB.LBSTNRLO" Value="10"/>
      <ItemData ItemOID="IT.LB.LBSTNRHI" Value="50"/>
      <ItemData ItemOID="IT.LB.LBNRIND" Value="NORMAL"/>
      <ItemData ItemOID="IT.LB.VISITNUM" Value="5"/>
      <ItemData ItemOID="IT.LB.VISIT" Value="WEEK 4"/>
      <ItemData ItemOID="IT.LB.EPOCH" Value="TREATMENT"/>
      <ItemData ItemOID="IT.LB.LBDTC" Value="2012-12-26T08:44"/>
      <ItemData ItemOID="IT.LB.LBDY" Value="27"/>
    </ItemGroupData>
    <ItemGroupData ItemGroupOID="IG.LB" data:ItemGroupDataSeq="49">
      <ItemData ItemOID="IT.LB.STUDYID" Value="CDISCPILOT01"/>
      <ItemData ItemOID="IT.LB.DOMAIN" Value="LB"/>
      <ItemData ItemOID="IT.LB.USUBJID" Value="CDISC001"/>
      <ItemData ItemOID="IT.LB.LBSEQ" Value="87"/>
      <ItemData ItemOID="IT.LB.LBTESTCD" Value="GLUC"/>
      <ItemData ItemOID="IT.LB.LBTEST" Value="Glucose"/>
      <ItemData ItemOID="IT.LB.LBCAT" Value="CHEMISTRY"/>
      <ItemData ItemOID="IT.LB.LBORRES" Value="&lt;40"/>
      <ItemData ItemOID="IT.LB.LBORRESU" Value="mg/dL"/>
      <ItemData ItemOID="IT.LB.LBORNRLO" Value="50"/>
      <ItemData ItemOID="IT.LB.LBORNRHI" Value="250"/>
      <ItemData ItemOID="IT.LB.LBSTRESC" Value="&lt;2.2204"/>
      <ItemData ItemOID="IT.LB.LBSTRESU" Value="mmol/L"/>
      <ItemData ItemOID="IT.LB.LBSTNRLO" Value="2.8"/>
      <ItemData ItemOID="IT.LB.LBSTNRHI" Value="13.9"/>
      <ItemData ItemOID="IT.LB.LBNRIND" Value="LOW"/>
      <ItemData ItemOID="IT.LB.VISITNUM" Value="5"/>
      <ItemData ItemOID="IT.LB.VISIT" Value="WEEK 4"/>
      <ItemData ItemOID="IT.LB.EPOCH" Value="TREATMENT"/>
      <ItemData ItemOID="IT.LB.LBDTC" Value="2012-12-26T08:44"/>
      <ItemData ItemOID="IT.LB.LBDY" Value="27"/>
    </ItemGroupData>
    <ItemGroupData ItemGroupOID="IG.LB" data:ItemGroupDataSeq="50">
      <ItemData ItemOID="IT.LB.STUDYID" Value="CDISCPILOT01"/>
      <ItemData ItemOID="IT.LB.DOMAIN" Value="LB"/>
      <ItemData ItemOID="IT.LB.USUBJID" Value="CDISC001"/>
      <ItemData ItemOID="IT.LB.LBSEQ" Value="90"/>
      <ItemData ItemOID="IT.LB.LBTESTCD" Value="K"/>
      <ItemData ItemOID="IT.LB.LBTEST" Value="Potassium"/>
      <ItemData ItemOID="IT.LB.LBCAT" Value="CHEMISTRY"/>
      <ItemData ItemOID="IT.LB.LBORRES" Value="4.7"/>
      <ItemData ItemOID="IT.LB.LBORRESU" Value="mEq/L"/>
      <ItemData ItemOID="IT.LB.LBORNRLO" Value="3.4"/>
      <ItemData ItemOID="IT.LB.LBORNRHI" Value="5.4"/>
      <ItemData ItemOID="IT.LB.LBSTRESC" Value="4.7"/>
      <ItemData ItemOID="IT.LB.LBSTRESN" Value="4.7"/>
      <ItemData ItemOID="IT.LB.LBSTRESU" Value="mmol/L"/>
      <ItemData ItemOID="IT.LB.LBSTNRLO" Value="3.4"/>
      <ItemData ItemOID="IT.LB.LBSTNRHI" Value="5.4"/>
      <ItemData ItemOID="IT.LB.LBNRIND" Value="NORMAL"/>
      <ItemData ItemOID="IT.LB.VISITNUM" Value="5"/>
      <ItemData ItemOID="IT.LB.VISIT" Value="WEEK 4"/>
      <ItemData ItemOID="IT.LB.EPOCH" Value="TREATMENT"/>
      <ItemData ItemOID="IT.LB.LBDTC" Value="2012-12-26T08:44"/>
      <ItemData ItemOID="IT.LB.LBDY" Value="27"/>
    </ItemGroupData>
    <ItemGroupData ItemGroupOID="IG.LB" data:ItemGroupDataSeq="51">
      <ItemData ItemOID="IT.LB.STUDYID" Value="CDISCPILOT01"/>
      <ItemData ItemOID="IT.LB.DOMAIN" Value="LB"/>
      <ItemData ItemOID="IT.LB.USUBJID" Value="CDISC001"/>
      <ItemData ItemOID="IT.LB.LBSEQ" Value="96"/>
      <ItemData ItemOID="IT.LB.LBTESTCD" Value="SODIUM"/>
      <ItemData ItemOID="IT.LB.LBTEST" Value="Sodium"/>
      <ItemData ItemOID="IT.LB.LBCAT" Value="CHEMISTRY"/>
      <ItemData ItemOID="IT.LB.LBORRES" Value="140"/>
      <ItemData ItemOID="IT.LB.LBORRESU" Value="mEq/L"/>
      <ItemData ItemOID="IT.LB.LBORNRLO" Value="135"/>
      <ItemData ItemOID="IT.LB.LBORNRHI" Value="145"/>
      <ItemData ItemOID="IT.LB.LBSTRESC" Value="140"/>
      <ItemData ItemOID="IT.LB.LBSTRESN" Value="140"/>
      <ItemData ItemOID="IT.LB.LBSTRESU" Value="mmol/L"/>
      <ItemData ItemOID="IT.LB.LBSTNRLO" Value="135"/>
      <ItemData ItemOID="IT.LB.LBSTNRHI" Value="145"/>
      <ItemData ItemOID="IT.LB.LBNRIND" Value="NORMAL"/>
      <ItemData ItemOID="IT.LB.VISITNUM" Value="5"/>
      <ItemData ItemOID="IT.LB.VISIT" Value="WEEK 4"/>
      <ItemData ItemOID="IT.LB.EPOCH" Value="TREATMENT"/>
      <ItemData ItemOID="IT.LB.LBDTC" Value="2012-12-26T08:44"/>
      <ItemData ItemOID="IT.LB.LBDY" Value="27"/>
    </ItemGroupData>
    <ItemGroupData ItemGroupOID="IG.LB" data:ItemGroupDataSeq="52">
      <ItemData ItemOID="IT.LB.STUDYID" Value="CDISCPILOT01"/>
      <ItemData ItemOID="IT.LB.DOMAIN" Value="LB"/>
      <ItemData ItemOID="IT.LB.USUBJID" Value="CDISC001"/>
      <ItemData ItemOID="IT.LB.LBSEQ" Value="97"/>
      <ItemData ItemOID="IT.LB.LBTESTCD" Value="PHOS"/>
      <ItemData ItemOID="IT.LB.LBTEST" Value="Phosphate"/>
      <ItemData ItemOID="IT.LB.LBCAT" Value="CHEMISTRY"/>
      <ItemData ItemOID="IT.LB.LBORRES" Value="3.1"/>
      <ItemData ItemOID="IT.LB.LBORRESU" Value="mg/dL"/>
      <ItemData ItemOID="IT.LB.LBORNRLO" Value="2.2"/>
      <ItemData ItemOID="IT.LB.LBORNRHI" Value="5.1"/>
      <ItemData ItemOID="IT.LB.LBSTRESC" Value="1.00099"/>
      <ItemData ItemOID="IT.LB.LBSTRESN" Value="1.00099"/>
      <ItemData ItemOID="IT.LB.LBSTRESU" Value="mmol/L"/>
      <ItemData ItemOID="IT.LB.LBSTNRLO" Value="0.71"/>
      <ItemData ItemOID="IT.LB.LBSTNRHI" Value="1.65"/>
      <ItemData ItemOID="IT.LB.LBNRIND" Value="NORMAL"/>
      <ItemData ItemOID="IT.LB.VISITNUM" Value="5"/>
      <ItemData ItemOID="IT.LB.VISIT" Value="WEEK 4"/>
      <ItemData ItemOID="IT.LB.EPOCH" Value="TREATMENT"/>
      <ItemData ItemOID="IT.LB.LBDTC" Value="2012-12-26T08:44"/>
      <ItemData ItemOID="IT.LB.LBDY" Value="27"/>
    </ItemGroupData>
    <ItemGroupData ItemGroupOID="IG.LB" data:ItemGroupDataSeq="53">
      <ItemData ItemOID="IT.LB.STUDYID" Value="CDISCPILOT01"/>
      <ItemData ItemOID="IT.LB.DOMAIN" Value="LB"/>
      <ItemData ItemOID="IT.LB.USUBJID" Value="CDISC001"/>
      <ItemData ItemOID="IT.LB.LBSEQ" Value="99"/>
      <ItemData ItemOID="IT.LB.LBTESTCD" Value="PROT"/>
      <ItemData ItemOID="IT.LB.LBTEST" Value="Protein"/>
      <ItemData ItemOID="IT.LB.LBCAT" Value="CHEMISTRY"/>
      <ItemData ItemOID="IT.LB.LBORRES" Value="6.3"/>
      <ItemData ItemOID="IT.LB.LBORRESU" Value="g/dL"/>
      <ItemData ItemOID="IT.LB.LBORNRLO" Value="6"/>
      <ItemData ItemOID="IT.LB.LBORNRHI" Value="8"/>
      <ItemData ItemOID="IT.LB.LBSTRESC" Value="63"/>
      <ItemData ItemOID="IT.LB.LBSTRESN" Value="63"/>
      <ItemData ItemOID="IT.LB.LBSTRESU" Value="g/L"/>
      <ItemData ItemOID="IT.LB.LBSTNRLO" Value="60"/>
      <ItemData ItemOID="IT.LB.LBSTNRHI" Value="80"/>
      <ItemData ItemOID="IT.LB.LBNRIND" Value="NORMAL"/>
      <ItemData ItemOID="IT.LB.VISITNUM" Value="5"/>
      <ItemData ItemOID="IT.LB.VISIT" Value="WEEK 4"/>
      <ItemData ItemOID="IT.LB.EPOCH" Value="TREATMENT"/>
      <ItemData ItemOID="IT.LB.LBDTC" Value="2012-12-26T08:44"/>
      <ItemData ItemOID="IT.LB.LBDY" Value="27"/>
    </ItemGroupData>
    <ItemGroupData ItemGroupOID="IG.LB" data:ItemGroupDataSeq="54">
      <ItemData ItemOID="IT.LB.STUDYID" Value="CDISCPILOT01"/>
      <ItemData ItemOID="IT.LB.DOMAIN" Value="LB"/>
      <ItemData ItemOID="IT.LB.USUBJID" Value="CDISC001"/>
      <ItemData ItemOID="IT.LB.LBSEQ" Value="101"/>
      <ItemData ItemOID="IT.LB.LBTESTCD" Value="URATE"/>
      <ItemData ItemOID="IT.LB.LBTEST" Value="Urate"/>
      <ItemData ItemOID="IT.LB.LBCAT" Value="CHEMISTRY"/>
      <ItemData ItemOID="IT.LB.LBORRES" Value="4.7"/>
      <ItemData ItemOID="IT.LB.LBORRESU" Value="mg/dL"/>
      <ItemData ItemOID="IT.LB.LBORNRLO" Value="2.5"/>
      <ItemData ItemOID="IT.LB.LBORNRHI" Value="7.5"/>
      <ItemData ItemOID="IT.LB.LBSTRESC" Value="279.556"/>
      <ItemData ItemOID="IT.LB.LBSTRESN" Value="279.556"/>
      <ItemData ItemOID="IT.LB.LBSTRESU" Value="umol/L"/>
      <ItemData ItemOID="IT.LB.LBSTNRLO" Value="149"/>
      <ItemData ItemOID="IT.LB.LBSTNRHI" Value="446"/>
      <ItemData ItemOID="IT.LB.LBNRIND" Value="NORMAL"/>
      <ItemData ItemOID="IT.LB.VISITNUM" Value="5"/>
      <ItemData ItemOID="IT.LB.VISIT" Value="WEEK 4"/>
      <ItemData ItemOID="IT.LB.EPOCH" Value="TREATMENT"/>
      <ItemData ItemOID="IT.LB.LBDTC" Value="2012-12-26T08:44"/>
      <ItemData ItemOID="IT.LB.LBDY" Value="27"/>
    </ItemGroupData>
    <ItemGroupData ItemGroupOID="IG.LB" data:ItemGroupDataSeq="55">
      <ItemData ItemOID="IT.LB.STUDYID" Value="CDISCPILOT01"/>
      <ItemData ItemOID="IT.LB.DOMAIN" Value="LB"/>
      <ItemData ItemOID="IT.LB.USUBJID" Value="CDISC001"/>
      <ItemData ItemOID="IT.LB.LBSEQ" Value="103"/>
      <ItemData ItemOID="IT.LB.LBTESTCD" Value="ALB"/>
      <ItemData ItemOID="IT.LB.LBTEST" Value="Albumin"/>
      <ItemData ItemOID="IT.LB.LBCAT" Value="CHEMISTRY"/>
      <ItemData ItemOID="IT.LB.LBORRES" Value="3.7"/>
      <ItemData ItemOID="IT.LB.LBORRESU" Value="g/dL"/>
      <ItemData ItemOID="IT.LB.LBORNRLO" Value="3.5"/>
      <ItemData ItemOID="IT.LB.LBORNRHI" Value="4.6"/>
      <ItemData ItemOID="IT.LB.LBSTRESC" Value="37"/>
      <ItemData ItemOID="IT.LB.LBSTRESN" Value="37"/>
      <ItemData ItemOID="IT.LB.LBSTRESU" Value="g/L"/>
      <ItemData ItemOID="IT.LB.LBSTNRLO" Value="35"/>
      <ItemData ItemOID="IT.LB.LBSTNRHI" Value="46"/>
      <ItemData ItemOID="IT.LB.LBNRIND" Value="NORMAL"/>
      <ItemData ItemOID="IT.LB.VISITNUM" Value="5.01"/>
      <ItemData ItemOID="IT.LB.VISIT" Value="WEEK 4: UNSCHEDULED 01"/>
      <ItemData ItemOID="IT.LB.EPOCH" Value="TREATMENT"/>
      <ItemData ItemOID="IT.LB.LBDTC" Value="2012-12-28T09:27"/>
      <ItemData ItemOID="IT.LB.LBDY" Value="29"/>
    </ItemGroupData>
    <ItemGroupData ItemGroupOID="IG.LB" data:ItemGroupDataSeq="56">
      <ItemData ItemOID="IT.LB.STUDYID" Value="CDISCPILOT01"/>
      <ItemData ItemOID="IT.LB.DOMAIN" Value="LB"/>
      <ItemData ItemOID="IT.LB.USUBJID" Value="CDISC001"/>
      <ItemData ItemOID="IT.LB.LBSEQ" Value="104"/>
      <ItemData ItemOID="IT.LB.LBTESTCD" Value="ALP"/>
      <ItemData ItemOID="IT.LB.LBTEST" Value="Alkaline Phosphatase"/>
      <ItemData ItemOID="IT.LB.LBCAT" Value="CHEMISTRY"/>
      <ItemData ItemOID="IT.LB.LBORRES" Value="101"/>
      <ItemData ItemOID="IT.LB.LBORRESU" Value="U/L"/>
      <ItemData ItemOID="IT.LB.LBORNRLO" Value="35"/>
      <ItemData ItemOID="IT.LB.LBORNRHI" Value="115"/>
      <ItemData ItemOID="IT.LB.LBSTRESC" Value="101"/>
      <ItemData ItemOID="IT.LB.LBSTRESN" Value="101"/>
      <ItemData ItemOID="IT.LB.LBSTRESU" Value="U/L"/>
      <ItemData ItemOID="IT.LB.LBSTNRLO" Value="35"/>
      <ItemData ItemOID="IT.LB.LBSTNRHI" Value="115"/>
      <ItemData ItemOID="IT.LB.LBNRIND" Value="NORMAL"/>
      <ItemData ItemOID="IT.LB.VISITNUM" Value="5.01"/>
      <ItemData ItemOID="IT.LB.VISIT" Value="WEEK 4: UNSCHEDULED 01"/>
      <ItemData ItemOID="IT.LB.EPOCH" Value="TREATMENT"/>
      <ItemData ItemOID="IT.LB.LBDTC" Value="2012-12-28T09:27"/>
      <ItemData ItemOID="IT.LB.LBDY" Value="29"/>
    </ItemGroupData>
    <ItemGroupData ItemGroupOID="IG.LB" data:ItemGroupDataSeq="57">
      <ItemData ItemOID="IT.LB.STUDYID" Value="CDISCPILOT01"/>
      <ItemData ItemOID="IT.LB.DOMAIN" Value="LB"/>
      <ItemData ItemOID="IT.LB.USUBJID" Value="CDISC001"/>
      <ItemData ItemOID="IT.LB.LBSEQ" Value="105"/>
      <ItemData ItemOID="IT.LB.LBTESTCD" Value="ALT"/>
      <ItemData ItemOID="IT.LB.LBTEST" Value="Alanine Aminotransferase"/>
      <ItemData ItemOID="IT.LB.LBCAT" Value="CHEMISTRY"/>
      <ItemData ItemOID="IT.LB.LBORRES" Value="16"/>
      <ItemData ItemOID="IT.LB.LBORRESU" Value="U/L"/>
      <ItemData ItemOID="IT.LB.LBORNRLO" Value="6"/>
      <ItemData ItemOID="IT.LB.LBORNRHI" Value="35"/>
      <ItemData ItemOID="IT.LB.LBSTRESC" Value="16"/>
      <ItemData ItemOID="IT.LB.LBSTRESN" Value="16"/>
      <ItemData ItemOID="IT.LB.LBSTRESU" Value="U/L"/>
      <ItemData ItemOID="IT.LB.LBSTNRLO" Value="6"/>
      <ItemData ItemOID="IT.LB.LBSTNRHI" Value="35"/>
      <ItemData ItemOID="IT.LB.LBNRIND" Value="NORMAL"/>
      <ItemData ItemOID="IT.LB.VISITNUM" Value="5.01"/>
      <ItemData ItemOID="IT.LB.VISIT" Value="WEEK 4: UNSCHEDULED 01"/>
      <ItemData ItemOID="IT.LB.EPOCH" Value="TREATMENT"/>
      <ItemData ItemOID="IT.LB.LBDTC" Value="2012-12-28T09:27"/>
      <ItemData ItemOID="IT.LB.LBDY" Value="29"/>
    </ItemGroupData>
    <ItemGroupData ItemGroupOID="IG.LB" data:ItemGroupDataSeq="58">
      <ItemData ItemOID="IT.LB.STUDYID" Value="CDISCPILOT01"/>
      <ItemData ItemOID="IT.LB.DOMAIN" Value="LB"/>
      <ItemData ItemOID="IT.LB.USUBJID" Value="CDISC001"/>
      <ItemData ItemOID="IT.LB.LBSEQ" Value="106"/>
      <ItemData ItemOID="IT.LB.LBTESTCD" Value="AST"/>
      <ItemData ItemOID="IT.LB.LBTEST" Value="Aspartate Aminotransferase"/>
      <ItemData ItemOID="IT.LB.LBCAT" Value="CHEMISTRY"/>
      <ItemData ItemOID="IT.LB.LBORRES" Value="23"/>
      <ItemData ItemOID="IT.LB.LBORRESU" Value="U/L"/>
      <ItemData ItemOID="IT.LB.LBORNRLO" Value="11"/>
      <ItemData ItemOID="IT.LB.LBORNRHI" Value="36"/>
      <ItemData ItemOID="IT.LB.LBSTRESC" Value="23"/>
      <ItemData ItemOID="IT.LB.LBSTRESN" Value="23"/>
      <ItemData ItemOID="IT.LB.LBSTRESU" Value="U/L"/>
      <ItemData ItemOID="IT.LB.LBSTNRLO" Value="11"/>
      <ItemData ItemOID="IT.LB.LBSTNRHI" Value="36"/>
      <ItemData ItemOID="IT.LB.LBNRIND" Value="NORMAL"/>
      <ItemData ItemOID="IT.LB.VISITNUM" Value="5.01"/>
      <ItemData ItemOID="IT.LB.VISIT" Value="WEEK 4: UNSCHEDULED 01"/>
      <ItemData ItemOID="IT.LB.EPOCH" Value="TREATMENT"/>
      <ItemData ItemOID="IT.LB.LBDTC" Value="2012-12-28T09:27"/>
      <ItemData ItemOID="IT.LB.LBDY" Value="29"/>
    </ItemGroupData>
    <ItemGroupData ItemGroupOID="IG.LB" data:ItemGroupDataSeq="59">
      <ItemData ItemOID="IT.LB.STUDYID" Value="CDISCPILOT01"/>
      <ItemData ItemOID="IT.LB.DOMAIN" Value="LB"/>
      <ItemData ItemOID="IT.LB.USUBJID" Value="CDISC001"/>
      <ItemData ItemOID="IT.LB.LBSEQ" Value="107"/>
      <ItemData ItemOID="IT.LB.LBTESTCD" Value="BILI"/>
      <ItemData ItemOID="IT.LB.LBTEST" Value="Bilirubin"/>
      <ItemData ItemOID="IT.LB.LBCAT" Value="CHEMISTRY"/>
      <ItemData ItemOID="IT.LB.LBORRES" Value="0.3"/>
      <ItemData ItemOID="IT.LB.LBORRESU" Value="mg/dL"/>
      <ItemData ItemOID="IT.LB.LBORNRLO" Value="0.2"/>
      <ItemData ItemOID="IT.LB.LBORNRHI" Value="1.2"/>
      <ItemData ItemOID="IT.LB.LBSTRESC" Value="5.13"/>
      <ItemData ItemOID="IT.LB.LBSTRESN" Value="5.13"/>
      <ItemData ItemOID="IT.LB.LBSTRESU" Value="umol/L"/>
      <ItemData ItemOID="IT.LB.LBSTNRLO" Value="3"/>
      <ItemData ItemOID="IT.LB.LBSTNRHI" Value="21"/>
      <ItemData ItemOID="IT.LB.LBNRIND" Value="NORMAL"/>
      <ItemData ItemOID="IT.LB.VISITNUM" Value="5.01"/>
      <ItemData ItemOID="IT.LB.VISIT" Value="WEEK 4: UNSCHEDULED 01"/>
      <ItemData ItemOID="IT.LB.EPOCH" Value="TREATMENT"/>
      <ItemData ItemOID="IT.LB.LBDTC" Value="2012-12-28T09:27"/>
      <ItemData ItemOID="IT.LB.LBDY" Value="29"/>
    </ItemGroupData>
    <ItemGroupData ItemGroupOID="IG.LB" data:ItemGroupDataSeq="60">
      <ItemData ItemOID="IT.LB.STUDYID" Value="CDISCPILOT01"/>
      <ItemData ItemOID="IT.LB.DOMAIN" Value="LB"/>
      <ItemData ItemOID="IT.LB.USUBJID" Value="CDISC001"/>
      <ItemData ItemOID="IT.LB.LBSEQ" Value="108"/>
      <ItemData ItemOID="IT.LB.LBTESTCD" Value="UREAN"/>
      <ItemData ItemOID="IT.LB.LBTEST" Value="Urea Nitrogen"/>
      <ItemData ItemOID="IT.LB.LBCAT" Value="CHEMISTRY"/>
      <ItemData ItemOID="IT.LB.LBORRES" Value="21"/>
      <ItemData ItemOID="IT.LB.LBORRESU" Value="mg/dL"/>
      <ItemData ItemOID="IT.LB.LBORNRLO" Value="4"/>
      <ItemData ItemOID="IT.LB.LBORNRHI" Value="24"/>
      <ItemData ItemOID="IT.LB.LBSTRESC" Value="7.497"/>
      <ItemData ItemOID="IT.LB.LBSTRESN" Value="7.497"/>
      <ItemData ItemOID="IT.LB.LBSTRESU" Value="mmol/L"/>
      <ItemData ItemOID="IT.LB.LBSTNRLO" Value="1.4"/>
      <ItemData ItemOID="IT.LB.LBSTNRHI" Value="8.6"/>
      <ItemData ItemOID="IT.LB.LBNRIND" Value="NORMAL"/>
      <ItemData ItemOID="IT.LB.VISITNUM" Value="5.01"/>
      <ItemData ItemOID="IT.LB.VISIT" Value="WEEK 4: UNSCHEDULED 01"/>
      <ItemData ItemOID="IT.LB.EPOCH" Value="TREATMENT"/>
      <ItemData ItemOID="IT.LB.LBDTC" Value="2012-12-28T09:27"/>
      <ItemData ItemOID="IT.LB.LBDY" Value="29"/>
    </ItemGroupData>
    <ItemGroupData ItemGroupOID="IG.LB" data:ItemGroupDataSeq="61">
      <ItemData ItemOID="IT.LB.STUDYID" Value="CDISCPILOT01"/>
      <ItemData ItemOID="IT.LB.DOMAIN" Value="LB"/>
      <ItemData ItemOID="IT.LB.USUBJID" Value="CDISC001"/>
      <ItemData ItemOID="IT.LB.LBSEQ" Value="109"/>
      <ItemData ItemOID="IT.LB.LBTESTCD" Value="CA"/>
      <ItemData ItemOID="IT.LB.LBTEST" Value="Calcium"/>
      <ItemData ItemOID="IT.LB.LBCAT" Value="CHEMISTRY"/>
      <ItemData ItemOID="IT.LB.LBORRES" Value="9.6"/>
      <ItemData ItemOID="IT.LB.LBORRESU" Value="mg/dL"/>
      <ItemData ItemOID="IT.LB.LBORNRLO" Value="8.4"/>
      <ItemData ItemOID="IT.LB.LBORNRHI" Value="10.3"/>
      <ItemData ItemOID="IT.LB.LBSTRESC" Value="2.3952"/>
      <ItemData ItemOID="IT.LB.LBSTRESN" Value="2.3952"/>
      <ItemData ItemOID="IT.LB.LBSTRESU" Value="mmol/L"/>
      <ItemData ItemOID="IT.LB.LBSTNRLO" Value="2.1"/>
      <ItemData ItemOID="IT.LB.LBSTNRHI" Value="2.57"/>
      <ItemData ItemOID="IT.LB.LBNRIND" Value="NORMAL"/>
      <ItemData ItemOID="IT.LB.VISITNUM" Value="5.01"/>
      <ItemData ItemOID="IT.LB.VISIT" Value="WEEK 4: UNSCHEDULED 01"/>
      <ItemData ItemOID="IT.LB.EPOCH" Value="TREATMENT"/>
      <ItemData ItemOID="IT.LB.LBDTC" Value="2012-12-28T09:27"/>
      <ItemData ItemOID="IT.LB.LBDY" Value="29"/>
    </ItemGroupData>
    <ItemGroupData ItemGroupOID="IG.LB" data:ItemGroupDataSeq="62">
      <ItemData ItemOID="IT.LB.STUDYID" Value="CDISCPILOT01"/>
      <ItemData ItemOID="IT.LB.DOMAIN" Value="LB"/>
      <ItemData ItemOID="IT.LB.USUBJID" Value="CDISC001"/>
      <ItemData ItemOID="IT.LB.LBSEQ" Value="110"/>
      <ItemData ItemOID="IT.LB.LBTESTCD" Value="CHOL"/>
      <ItemData ItemOID="IT.LB.LBTEST" Value="Cholesterol"/>
      <ItemData ItemOID="IT.LB.LBCAT" Value="CHEMISTRY"/>
      <ItemData ItemOID="IT.LB.LBORRES" Value="235"/>
      <ItemData ItemOID="IT.LB.LBORRESU" Value="mg/dL"/>
      <ItemData ItemOID="IT.LB.LBORNRLO" Value="149"/>
      <ItemData ItemOID="IT.LB.LBORNRHI" Value="286"/>
      <ItemData ItemOID="IT.LB.LBSTRESC" Value="6.0771"/>
      <ItemData ItemOID="IT.LB.LBSTRESN" Value="6.0771"/>
      <ItemData ItemOID="IT.LB.LBSTRESU" Value="mmol/L"/>
      <ItemData ItemOID="IT.LB.LBSTNRLO" Value="3.85"/>
      <ItemData ItemOID="IT.LB.LBSTNRHI" Value="7.4"/>
      <ItemData ItemOID="IT.LB.LBNRIND" Value="NORMAL"/>
      <ItemData ItemOID="IT.LB.VISITNUM" Value="5.01"/>
      <ItemData ItemOID="IT.LB.VISIT" Value="WEEK 4: UNSCHEDULED 01"/>
      <ItemData ItemOID="IT.LB.EPOCH" Value="TREATMENT"/>
      <ItemData ItemOID="IT.LB.LBDTC" Value="2012-12-28T09:27"/>
      <ItemData ItemOID="IT.LB.LBDY" Value="29"/>
    </ItemGroupData>
    <ItemGroupData ItemGroupOID="IG.LB" data:ItemGroupDataSeq="63">
      <ItemData ItemOID="IT.LB.STUDYID" Value="CDISCPILOT01"/>
      <ItemData ItemOID="IT.LB.DOMAIN" Value="LB"/>
      <ItemData ItemOID="IT.LB.USUBJID" Value="CDISC001"/>
      <ItemData ItemOID="IT.LB.LBSEQ" Value="111"/>
      <ItemData ItemOID="IT.LB.LBTESTCD" Value="CK"/>
      <ItemData ItemOID="IT.LB.LBTEST" Value="Creatine Kinase"/>
      <ItemData ItemOID="IT.LB.LBCAT" Value="CHEMISTRY"/>
      <ItemData ItemOID="IT.LB.LBORRES" Value="58"/>
      <ItemData ItemOID="IT.LB.LBORRESU" Value="U/L"/>
      <ItemData ItemOID="IT.LB.LBORNRLO" Value="22"/>
      <ItemData ItemOID="IT.LB.LBORNRHI" Value="198"/>
      <ItemData ItemOID="IT.LB.LBSTRESC" Value="58"/>
      <ItemData ItemOID="IT.LB.LBSTRESN" Value="58"/>
      <ItemData ItemOID="IT.LB.LBSTRESU" Value="U/L"/>
      <ItemData ItemOID="IT.LB.LBSTNRLO" Value="22"/>
      <ItemData ItemOID="IT.LB.LBSTNRHI" Value="198"/>
      <ItemData ItemOID="IT.LB.LBNRIND" Value="NORMAL"/>
      <ItemData ItemOID="IT.LB.VISITNUM" Value="5.01"/>
      <ItemData ItemOID="IT.LB.VISIT" Value="WEEK 4: UNSCHEDULED 01"/>
      <ItemData ItemOID="IT.LB.EPOCH" Value="TREATMENT"/>
      <ItemData ItemOID="IT.LB.LBDTC" Value="2012-12-28T09:27"/>
      <ItemData ItemOID="IT.LB.LBDY" Value="29"/>
    </ItemGroupData>
    <ItemGroupData ItemGroupOID="IG.LB" data:ItemGroupDataSeq="64">
      <ItemData ItemOID="IT.LB.STUDYID" Value="CDISCPILOT01"/>
      <ItemData ItemOID="IT.LB.DOMAIN" Value="LB"/>
      <ItemData ItemOID="IT.LB.USUBJID" Value="CDISC001"/>
      <ItemData ItemOID="IT.LB.LBSEQ" Value="112"/>
      <ItemData ItemOID="IT.LB.LBTESTCD" Value="CREAT"/>
      <ItemData ItemOID="IT.LB.LBTEST" Value="Creatinine"/>
      <ItemData ItemOID="IT.LB.LBCAT" Value="CHEMISTRY"/>
      <ItemData ItemOID="IT.LB.LBORRES" Value="1.3"/>
      <ItemData ItemOID="IT.LB.LBORRESU" Value="mg/dL"/>
      <ItemData ItemOID="IT.LB.LBORNRLO" Value="0.8"/>
      <ItemData ItemOID="IT.LB.LBORNRHI" Value="1.6"/>
      <ItemData ItemOID="IT.LB.LBSTRESC" Value="114.92"/>
      <ItemData ItemOID="IT.LB.LBSTRESN" Value="114.92"/>
      <ItemData ItemOID="IT.LB.LBSTRESU" Value="umol/L"/>
      <ItemData ItemOID="IT.LB.LBSTNRLO" Value="71"/>
      <ItemData ItemOID="IT.LB.LBSTNRHI" Value="141"/>
      <ItemData ItemOID="IT.LB.LBNRIND" Value="NORMAL"/>
      <ItemData ItemOID="IT.LB.VISITNUM" Value="5.01"/>
      <ItemData ItemOID="IT.LB.VISIT" Value="WEEK 4: UNSCHEDULED 01"/>
      <ItemData ItemOID="IT.LB.EPOCH" Value="TREATMENT"/>
      <ItemData ItemOID="IT.LB.LBDTC" Value="2012-12-28T09:27"/>
      <ItemData ItemOID="IT.LB.LBDY" Value="29"/>
    </ItemGroupData>
    <ItemGroupData ItemGroupOID="IG.LB" data:ItemGroupDataSeq="65">
      <ItemData ItemOID="IT.LB.STUDYID" Value="CDISCPILOT01"/>
      <ItemData ItemOID="IT.LB.DOMAIN" Value="LB"/>
      <ItemData ItemOID="IT.LB.USUBJID" Value="CDISC001"/>
      <ItemData ItemOID="IT.LB.LBSEQ" Value="113"/>
      <ItemData ItemOID="IT.LB.LBTESTCD" Value="GGT"/>
      <ItemData ItemOID="IT.LB.LBTEST" Value="Gamma Glutamyl Transferase"/>
      <ItemData ItemOID="IT.LB.LBCAT" Value="CHEMISTRY"/>
      <ItemData ItemOID="IT.LB.LBORRES" Value="34"/>
      <ItemData ItemOID="IT.LB.LBORRESU" Value="U/L"/>
      <ItemData ItemOID="IT.LB.LBORNRLO" Value="10"/>
      <ItemData ItemOID="IT.LB.LBORNRHI" Value="50"/>
      <ItemData ItemOID="IT.LB.LBSTRESC" Value="34"/>
      <ItemData ItemOID="IT.LB.LBSTRESN" Value="34"/>
      <ItemData ItemOID="IT.LB.LBSTRESU" Value="U/L"/>
      <ItemData ItemOID="IT.LB.LBSTNRLO" Value="10"/>
      <ItemData ItemOID="IT.LB.LBSTNRHI" Value="50"/>
      <ItemData ItemOID="IT.LB.LBNRIND" Value="NORMAL"/>
      <ItemData ItemOID="IT.LB.VISITNUM" Value="5.01"/>
      <ItemData ItemOID="IT.LB.VISIT" Value="WEEK 4: UNSCHEDULED 01"/>
      <ItemData ItemOID="IT.LB.EPOCH" Value="TREATMENT"/>
      <ItemData ItemOID="IT.LB.LBDTC" Value="2012-12-28T09:27"/>
      <ItemData ItemOID="IT.LB.LBDY" Value="29"/>
    </ItemGroupData>
    <ItemGroupData ItemGroupOID="IG.LB" data:ItemGroupDataSeq="66">
      <ItemData ItemOID="IT.LB.STUDYID" Value="CDISCPILOT01"/>
      <ItemData ItemOID="IT.LB.DOMAIN" Value="LB"/>
      <ItemData ItemOID="IT.LB.USUBJID" Value="CDISC001"/>
      <ItemData ItemOID="IT.LB.LBSEQ" Value="114"/>
      <ItemData ItemOID="IT.LB.LBTESTCD" Value="GLUC"/>
      <ItemData ItemOID="IT.LB.LBTEST" Value="Glucose"/>
      <ItemData ItemOID="IT.LB.LBCAT" Value="CHEMISTRY"/>
      <ItemData ItemOID="IT.LB.LBORRES" Value="48"/>
      <ItemData ItemOID="IT.LB.LBORRESU" Value="mg/dL"/>
      <ItemData ItemOID="IT.LB.LBORNRLO" Value="50"/>
      <ItemData ItemOID="IT.LB.LBORNRHI" Value="250"/>
      <ItemData ItemOID="IT.LB.LBSTRESC" Value="2.66448"/>
      <ItemData ItemOID="IT.LB.LBSTRESN" Value="2.66448"/>
      <ItemData ItemOID="IT.LB.LBSTRESU" Value="mmol/L"/>
      <ItemData ItemOID="IT.LB.LBSTNRLO" Value="2.8"/>
      <ItemData ItemOID="IT.LB.LBSTNRHI" Value="13.9"/>
      <ItemData ItemOID="IT.LB.LBNRIND" Value="LOW"/>
      <ItemData ItemOID="IT.LB.VISITNUM" Value="5.01"/>
      <ItemData ItemOID="IT.LB.VISIT" Value="WEEK 4: UNSCHEDULED 01"/>
      <ItemData ItemOID="IT.LB.EPOCH" Value="TREATMENT"/>
      <ItemData ItemOID="IT.LB.LBDTC" Value="2012-12-28T09:27"/>
      <ItemData ItemOID="IT.LB.LBDY" Value="29"/>
    </ItemGroupData>
    <ItemGroupData ItemGroupOID="IG.LB" data:ItemGroupDataSeq="67">
      <ItemData ItemOID="IT.LB.STUDYID" Value="CDISCPILOT01"/>
      <ItemData ItemOID="IT.LB.DOMAIN" Value="LB"/>
      <ItemData ItemOID="IT.LB.USUBJID" Value="CDISC001"/>
      <ItemData ItemOID="IT.LB.LBSEQ" Value="115"/>
      <ItemData ItemOID="IT.LB.LBTESTCD" Value="PHOS"/>
      <ItemData ItemOID="IT.LB.LBTEST" Value="Phosphate"/>
      <ItemData ItemOID="IT.LB.LBCAT" Value="CHEMISTRY"/>
      <ItemData ItemOID="IT.LB.LBORRES" Value="2.9"/>
      <ItemData ItemOID="IT.LB.LBORRESU" Value="mg/dL"/>
      <ItemData ItemOID="IT.LB.LBORNRLO" Value="2.2"/>
      <ItemData ItemOID="IT.LB.LBORNRHI" Value="5.1"/>
      <ItemData ItemOID="IT.LB.LBSTRESC" Value="0.93641"/>
      <ItemData ItemOID="IT.LB.LBSTRESN" Value="0.93641"/>
      <ItemData ItemOID="IT.LB.LBSTRESU" Value="mmol/L"/>
      <ItemData ItemOID="IT.LB.LBSTNRLO" Value="0.71"/>
      <ItemData ItemOID="IT.LB.LBSTNRHI" Value="1.65"/>
      <ItemData ItemOID="IT.LB.LBNRIND" Value="NORMAL"/>
      <ItemData ItemOID="IT.LB.VISITNUM" Value="5.01"/>
      <ItemData ItemOID="IT.LB.VISIT" Value="WEEK 4: UNSCHEDULED 01"/>
      <ItemData ItemOID="IT.LB.EPOCH" Value="TREATMENT"/>
      <ItemData ItemOID="IT.LB.LBDTC" Value="2012-12-28T09:27"/>
      <ItemData ItemOID="IT.LB.LBDY" Value="29"/>
    </ItemGroupData>
    <ItemGroupData ItemGroupOID="IG.LB" data:ItemGroupDataSeq="68">
      <ItemData ItemOID="IT.LB.STUDYID" Value="CDISCPILOT01"/>
      <ItemData ItemOID="IT.LB.DOMAIN" Value="LB"/>
      <ItemData ItemOID="IT.LB.USUBJID" Value="CDISC001"/>
      <ItemData ItemOID="IT.LB.LBSEQ" Value="116"/>
      <ItemData ItemOID="IT.LB.LBTESTCD" Value="PROT"/>
      <ItemData ItemOID="IT.LB.LBTEST" Value="Protein"/>
      <ItemData ItemOID="IT.LB.LBCAT" Value="CHEMISTRY"/>
      <ItemData ItemOID="IT.LB.LBORRES" Value="6.9"/>
      <ItemData ItemOID="IT.LB.LBORRESU" Value="g/dL"/>
      <ItemData ItemOID="IT.LB.LBORNRLO" Value="6"/>
      <ItemData ItemOID="IT.LB.LBORNRHI" Value="8"/>
      <ItemData ItemOID="IT.LB.LBSTRESC" Value="69"/>
      <ItemData ItemOID="IT.LB.LBSTRESN" Value="69"/>
      <ItemData ItemOID="IT.LB.LBSTRESU" Value="g/L"/>
      <ItemData ItemOID="IT.LB.LBSTNRLO" Value="60"/>
      <ItemData ItemOID="IT.LB.LBSTNRHI" Value="80"/>
      <ItemData ItemOID="IT.LB.LBNRIND" Value="NORMAL"/>
      <ItemData ItemOID="IT.LB.VISITNUM" Value="5.01"/>
      <ItemData ItemOID="IT.LB.VISIT" Value="WEEK 4: UNSCHEDULED 01"/>
      <ItemData ItemOID="IT.LB.EPOCH" Value="TREATMENT"/>
      <ItemData ItemOID="IT.LB.LBDTC" Value="2012-12-28T09:27"/>
      <ItemData ItemOID="IT.LB.LBDY" Value="29"/>
    </ItemGroupData>
    <ItemGroupData ItemGroupOID="IG.LB" data:ItemGroupDataSeq="69">
      <ItemData ItemOID="IT.LB.STUDYID" Value="CDISCPILOT01"/>
      <ItemData ItemOID="IT.LB.DOMAIN" Value="LB"/>
      <ItemData ItemOID="IT.LB.USUBJID" Value="CDISC001"/>
      <ItemData ItemOID="IT.LB.LBSEQ" Value="117"/>
      <ItemData ItemOID="IT.LB.LBTESTCD" Value="URATE"/>
      <ItemData ItemOID="IT.LB.LBTEST" Value="Urate"/>
      <ItemData ItemOID="IT.LB.LBCAT" Value="CHEMISTRY"/>
      <ItemData ItemOID="IT.LB.LBORRES" Value="4.4"/>
      <ItemData ItemOID="IT.LB.LBORRESU" Value="mg/dL"/>
      <ItemData ItemOID="IT.LB.LBORNRLO" Value="2.5"/>
      <ItemData ItemOID="IT.LB.LBORNRHI" Value="7.5"/>
      <ItemData ItemOID="IT.LB.LBSTRESC" Value="261.712"/>
      <ItemData ItemOID="IT.LB.LBSTRESN" Value="261.712"/>
      <ItemData ItemOID="IT.LB.LBSTRESU" Value="umol/L"/>
      <ItemData ItemOID="IT.LB.LBSTNRLO" Value="149"/>
      <ItemData ItemOID="IT.LB.LBSTNRHI" Value="446"/>
      <ItemData ItemOID="IT.LB.LBNRIND" Value="NORMAL"/>
      <ItemData ItemOID="IT.LB.VISITNUM" Value="5.01"/>
      <ItemData ItemOID="IT.LB.VISIT" Value="WEEK 4: UNSCHEDULED 01"/>
      <ItemData ItemOID="IT.LB.EPOCH" Value="TREATMENT"/>
      <ItemData ItemOID="IT.LB.LBDTC" Value="2012-12-28T09:27"/>
      <ItemData ItemOID="IT.LB.LBDY" Value="29"/>
    </ItemGroupData>
    <ItemGroupData ItemGroupOID="IG.LB" data:ItemGroupDataSeq="70">
      <ItemData ItemOID="IT.LB.STUDYID" Value="CDISCPILOT01"/>
      <ItemData ItemOID="IT.LB.DOMAIN" Value="LB"/>
      <ItemData ItemOID="IT.LB.USUBJID" Value="CDISC001"/>
      <ItemData ItemOID="IT.LB.LBSEQ" Value="118"/>
      <ItemData ItemOID="IT.LB.LBTESTCD" Value="ALB"/>
      <ItemData ItemOID="IT.LB.LBTEST" Value="Albumin"/>
      <ItemData ItemOID="IT.LB.LBCAT" Value="CHEMISTRY"/>
      <ItemData ItemOID="IT.LB.LBORRES" Value="3.7"/>
      <ItemData ItemOID="IT.LB.LBORRESU" Value="g/dL"/>
      <ItemData ItemOID="IT.LB.LBORNRLO" Value="3.5"/>
      <ItemData ItemOID="IT.LB.LBORNRHI" Value="4.6"/>
      <ItemData ItemOID="IT.LB.LBSTRESC" Value="37"/>
      <ItemData ItemOID="IT.LB.LBSTRESN" Value="37"/>
      <ItemData ItemOID="IT.LB.LBSTRESU" Value="g/L"/>
      <ItemData ItemOID="IT.LB.LBSTNRLO" Value="35"/>
      <ItemData ItemOID="IT.LB.LBSTNRHI" Value="46"/>
      <ItemData ItemOID="IT.LB.LBNRIND" Value="NORMAL"/>
      <ItemData ItemOID="IT.LB.VISITNUM" Value="7"/>
      <ItemData ItemOID="IT.LB.VISIT" Value="WEEK 6"/>
      <ItemData ItemOID="IT.LB.EPOCH" Value="TREATMENT"/>
      <ItemData ItemOID="IT.LB.LBDTC" Value="2013-01-10T15:20"/>
      <ItemData ItemOID="IT.LB.LBDY" Value="42"/>
    </ItemGroupData>
    <ItemGroupData ItemGroupOID="IG.LB" data:ItemGroupDataSeq="71">
      <ItemData ItemOID="IT.LB.STUDYID" Value="CDISCPILOT01"/>
      <ItemData ItemOID="IT.LB.DOMAIN" Value="LB"/>
      <ItemData ItemOID="IT.LB.USUBJID" Value="CDISC001"/>
      <ItemData ItemOID="IT.LB.LBSEQ" Value="119"/>
      <ItemData ItemOID="IT.LB.LBTESTCD" Value="ALP"/>
      <ItemData ItemOID="IT.LB.LBTEST" Value="Alkaline Phosphatase"/>
      <ItemData ItemOID="IT.LB.LBCAT" Value="CHEMISTRY"/>
      <ItemData ItemOID="IT.LB.LBORRES" Value="98"/>
      <ItemData ItemOID="IT.LB.LBORRESU" Value="U/L"/>
      <ItemData ItemOID="IT.LB.LBORNRLO" Value="35"/>
      <ItemData ItemOID="IT.LB.LBORNRHI" Value="115"/>
      <ItemData ItemOID="IT.LB.LBSTRESC" Value="98"/>
      <ItemData ItemOID="IT.LB.LBSTRESN" Value="98"/>
      <ItemData ItemOID="IT.LB.LBSTRESU" Value="U/L"/>
      <ItemData ItemOID="IT.LB.LBSTNRLO" Value="35"/>
      <ItemData ItemOID="IT.LB.LBSTNRHI" Value="115"/>
      <ItemData ItemOID="IT.LB.LBNRIND" Value="NORMAL"/>
      <ItemData ItemOID="IT.LB.VISITNUM" Value="7"/>
      <ItemData ItemOID="IT.LB.VISIT" Value="WEEK 6"/>
      <ItemData ItemOID="IT.LB.EPOCH" Value="TREATMENT"/>
      <ItemData ItemOID="IT.LB.LBDTC" Value="2013-01-10T15:20"/>
      <ItemData ItemOID="IT.LB.LBDY" Value="42"/>
    </ItemGroupData>
    <ItemGroupData ItemGroupOID="IG.LB" data:ItemGroupDataSeq="72">
      <ItemData ItemOID="IT.LB.STUDYID" Value="CDISCPILOT01"/>
      <ItemData ItemOID="IT.LB.DOMAIN" Value="LB"/>
      <ItemData ItemOID="IT.LB.USUBJID" Value="CDISC001"/>
      <ItemData ItemOID="IT.LB.LBSEQ" Value="120"/>
      <ItemData ItemOID="IT.LB.LBTESTCD" Value="ALT"/>
      <ItemData ItemOID="IT.LB.LBTEST" Value="Alanine Aminotransferase"/>
      <ItemData ItemOID="IT.LB.LBCAT" Value="CHEMISTRY"/>
      <ItemData ItemOID="IT.LB.LBORRES" Value="18"/>
      <ItemData ItemOID="IT.LB.LBORRESU" Value="U/L"/>
      <ItemData ItemOID="IT.LB.LBORNRLO" Value="6"/>
      <ItemData ItemOID="IT.LB.LBORNRHI" Value="35"/>
      <ItemData ItemOID="IT.LB.LBSTRESC" Value="18"/>
      <ItemData ItemOID="IT.LB.LBSTRESN" Value="18"/>
      <ItemData ItemOID="IT.LB.LBSTRESU" Value="U/L"/>
      <ItemData ItemOID="IT.LB.LBSTNRLO" Value="6"/>
      <ItemData ItemOID="IT.LB.LBSTNRHI" Value="35"/>
      <ItemData ItemOID="IT.LB.LBNRIND" Value="NORMAL"/>
      <ItemData ItemOID="IT.LB.VISITNUM" Value="7"/>
      <ItemData ItemOID="IT.LB.VISIT" Value="WEEK 6"/>
      <ItemData ItemOID="IT.LB.EPOCH" Value="TREATMENT"/>
      <ItemData ItemOID="IT.LB.LBDTC" Value="2013-01-10T15:20"/>
      <ItemData ItemOID="IT.LB.LBDY" Value="42"/>
    </ItemGroupData>
    <ItemGroupData ItemGroupOID="IG.LB" data:ItemGroupDataSeq="73">
      <ItemData ItemOID="IT.LB.STUDYID" Value="CDISCPILOT01"/>
      <ItemData ItemOID="IT.LB.DOMAIN" Value="LB"/>
      <ItemData ItemOID="IT.LB.USUBJID" Value="CDISC001"/>
      <ItemData ItemOID="IT.LB.LBSEQ" Value="121"/>
      <ItemData ItemOID="IT.LB.LBTESTCD" Value="AST"/>
      <ItemData ItemOID="IT.LB.LBTEST" Value="Aspartate Aminotransferase"/>
      <ItemData ItemOID="IT.LB.LBCAT" Value="CHEMISTRY"/>
      <ItemData ItemOID="IT.LB.LBORRES" Value="25"/>
      <ItemData ItemOID="IT.LB.LBORRESU" Value="U/L"/>
      <ItemData ItemOID="IT.LB.LBORNRLO" Value="11"/>
      <ItemData ItemOID="IT.LB.LBORNRHI" Value="36"/>
      <ItemData ItemOID="IT.LB.LBSTRESC" Value="25"/>
      <ItemData ItemOID="IT.LB.LBSTRESN" Value="25"/>
      <ItemData ItemOID="IT.LB.LBSTRESU" Value="U/L"/>
      <ItemData ItemOID="IT.LB.LBSTNRLO" Value="11"/>
      <ItemData ItemOID="IT.LB.LBSTNRHI" Value="36"/>
      <ItemData ItemOID="IT.LB.LBNRIND" Value="NORMAL"/>
      <ItemData ItemOID="IT.LB.VISITNUM" Value="7"/>
      <ItemData ItemOID="IT.LB.VISIT" Value="WEEK 6"/>
      <ItemData ItemOID="IT.LB.EPOCH" Value="TREATMENT"/>
      <ItemData ItemOID="IT.LB.LBDTC" Value="2013-01-10T15:20"/>
      <ItemData ItemOID="IT.LB.LBDY" Value="42"/>
    </ItemGroupData>
    <ItemGroupData ItemGroupOID="IG.LB" data:ItemGroupDataSeq="74">
      <ItemData ItemOID="IT.LB.STUDYID" Value="CDISCPILOT01"/>
      <ItemData ItemOID="IT.LB.DOMAIN" Value="LB"/>
      <ItemData ItemOID="IT.LB.USUBJID" Value="CDISC001"/>
      <ItemData ItemOID="IT.LB.LBSEQ" Value="123"/>
      <ItemData ItemOID="IT.LB.LBTESTCD" Value="BILI"/>
      <ItemData ItemOID="IT.LB.LBTEST" Value="Bilirubin"/>
      <ItemData ItemOID="IT.LB.LBCAT" Value="CHEMISTRY"/>
      <ItemData ItemOID="IT.LB.LBORRES" Value="0.4"/>
      <ItemData ItemOID="IT.LB.LBORRESU" Value="mg/dL"/>
      <ItemData ItemOID="IT.LB.LBORNRLO" Value="0.2"/>
      <ItemData ItemOID="IT.LB.LBORNRHI" Value="1.2"/>
      <ItemData ItemOID="IT.LB.LBSTRESC" Value="6.84"/>
      <ItemData ItemOID="IT.LB.LBSTRESN" Value="6.84"/>
      <ItemData ItemOID="IT.LB.LBSTRESU" Value="umol/L"/>
      <ItemData ItemOID="IT.LB.LBSTNRLO" Value="3"/>
      <ItemData ItemOID="IT.LB.LBSTNRHI" Value="21"/>
      <ItemData ItemOID="IT.LB.LBNRIND" Value="NORMAL"/>
      <ItemData ItemOID="IT.LB.VISITNUM" Value="7"/>
      <ItemData ItemOID="IT.LB.VISIT" Value="WEEK 6"/>
      <ItemData ItemOID="IT.LB.EPOCH" Value="TREATMENT"/>
      <ItemData ItemOID="IT.LB.LBDTC" Value="2013-01-10T15:20"/>
      <ItemData ItemOID="IT.LB.LBDY" Value="42"/>
    </ItemGroupData>
    <ItemGroupData ItemGroupOID="IG.LB" data:ItemGroupDataSeq="75">
      <ItemData ItemOID="IT.LB.STUDYID" Value="CDISCPILOT01"/>
      <ItemData ItemOID="IT.LB.DOMAIN" Value="LB"/>
      <ItemData ItemOID="IT.LB.USUBJID" Value="CDISC001"/>
      <ItemData ItemOID="IT.LB.LBSEQ" Value="124"/>
      <ItemData ItemOID="IT.LB.LBTESTCD" Value="UREAN"/>
      <ItemData ItemOID="IT.LB.LBTEST" Value="Urea Nitrogen"/>
      <ItemData ItemOID="IT.LB.LBCAT" Value="CHEMISTRY"/>
      <ItemData ItemOID="IT.LB.LBORRES" Value="25"/>
      <ItemData ItemOID="IT.LB.LBORRESU" Value="mg/dL"/>
      <ItemData ItemOID="IT.LB.LBORNRLO" Value="4"/>
      <ItemData ItemOID="IT.LB.LBORNRHI" Value="24"/>
      <ItemData ItemOID="IT.LB.LBSTRESC" Value="8.925"/>
      <ItemData ItemOID="IT.LB.LBSTRESN" Value="8.925"/>
      <ItemData ItemOID="IT.LB.LBSTRESU" Value="mmol/L"/>
      <ItemData ItemOID="IT.LB.LBSTNRLO" Value="1.4"/>
      <ItemData ItemOID="IT.LB.LBSTNRHI" Value="8.6"/>
      <ItemData ItemOID="IT.LB.LBNRIND" Value="HIGH"/>
      <ItemData ItemOID="IT.LB.VISITNUM" Value="7"/>
      <ItemData ItemOID="IT.LB.VISIT" Value="WEEK 6"/>
      <ItemData ItemOID="IT.LB.EPOCH" Value="TREATMENT"/>
      <ItemData ItemOID="IT.LB.LBDTC" Value="2013-01-10T15:20"/>
      <ItemData ItemOID="IT.LB.LBDY" Value="42"/>
    </ItemGroupData>
    <ItemGroupData ItemGroupOID="IG.LB" data:ItemGroupDataSeq="76">
      <ItemData ItemOID="IT.LB.STUDYID" Value="CDISCPILOT01"/>
      <ItemData ItemOID="IT.LB.DOMAIN" Value="LB"/>
      <ItemData ItemOID="IT.LB.USUBJID" Value="CDISC001"/>
      <ItemData ItemOID="IT.LB.LBSEQ" Value="125"/>
      <ItemData ItemOID="IT.LB.LBTESTCD" Value="CA"/>
      <ItemData ItemOID="IT.LB.LBTEST" Value="Calcium"/>
      <ItemData ItemOID="IT.LB.LBCAT" Value="CHEMISTRY"/>
      <ItemData ItemOID="IT.LB.LBORRES" Value="9.2"/>
      <ItemData ItemOID="IT.LB.LBORRESU" Value="mg/dL"/>
      <ItemData ItemOID="IT.LB.LBORNRLO" Value="8.4"/>
      <ItemData ItemOID="IT.LB.LBORNRHI" Value="10.3"/>
      <ItemData ItemOID="IT.LB.LBSTRESC" Value="2.2954"/>
      <ItemData ItemOID="IT.LB.LBSTRESN" Value="2.2954"/>
      <ItemData ItemOID="IT.LB.LBSTRESU" Value="mmol/L"/>
      <ItemData ItemOID="IT.LB.LBSTNRLO" Value="2.1"/>
      <ItemData ItemOID="IT.LB.LBSTNRHI" Value="2.57"/>
      <ItemData ItemOID="IT.LB.LBNRIND" Value="NORMAL"/>
      <ItemData ItemOID="IT.LB.VISITNUM" Value="7"/>
      <ItemData ItemOID="IT.LB.VISIT" Value="WEEK 6"/>
      <ItemData ItemOID="IT.LB.EPOCH" Value="TREATMENT"/>
      <ItemData ItemOID="IT.LB.LBDTC" Value="2013-01-10T15:20"/>
      <ItemData ItemOID="IT.LB.LBDY" Value="42"/>
    </ItemGroupData>
    <ItemGroupData ItemGroupOID="IG.LB" data:ItemGroupDataSeq="77">
      <ItemData ItemOID="IT.LB.STUDYID" Value="CDISCPILOT01"/>
      <ItemData ItemOID="IT.LB.DOMAIN" Value="LB"/>
      <ItemData ItemOID="IT.LB.USUBJID" Value="CDISC001"/>
      <ItemData ItemOID="IT.LB.LBSEQ" Value="126"/>
      <ItemData ItemOID="IT.LB.LBTESTCD" Value="CHOL"/>
      <ItemData ItemOID="IT.LB.LBTEST" Value="Cholesterol"/>
      <ItemData ItemOID="IT.LB.LBCAT" Value="CHEMISTRY"/>
      <ItemData ItemOID="IT.LB.LBORRES" Value="242"/>
      <ItemData ItemOID="IT.LB.LBORRESU" Value="mg/dL"/>
      <ItemData ItemOID="IT.LB.LBORNRLO" Value="149"/>
      <ItemData ItemOID="IT.LB.LBORNRHI" Value="286"/>
      <ItemData ItemOID="IT.LB.LBSTRESC" Value="6.25812"/>
      <ItemData ItemOID="IT.LB.LBSTRESN" Value="6.25812"/>
      <ItemData ItemOID="IT.LB.LBSTRESU" Value="mmol/L"/>
      <ItemData ItemOID="IT.LB.LBSTNRLO" Value="3.85"/>
      <ItemData ItemOID="IT.LB.LBSTNRHI" Value="7.4"/>
      <ItemData ItemOID="IT.LB.LBNRIND" Value="NORMAL"/>
      <ItemData ItemOID="IT.LB.VISITNUM" Value="7"/>
      <ItemData ItemOID="IT.LB.VISIT" Value="WEEK 6"/>
      <ItemData ItemOID="IT.LB.EPOCH" Value="TREATMENT"/>
      <ItemData ItemOID="IT.LB.LBDTC" Value="2013-01-10T15:20"/>
      <ItemData ItemOID="IT.LB.LBDY" Value="42"/>
    </ItemGroupData>
    <ItemGroupData ItemGroupOID="IG.LB" data:ItemGroupDataSeq="78">
      <ItemData ItemOID="IT.LB.STUDYID" Value="CDISCPILOT01"/>
      <ItemData ItemOID="IT.LB.DOMAIN" Value="LB"/>
      <ItemData ItemOID="IT.LB.USUBJID" Value="CDISC001"/>
      <ItemData ItemOID="IT.LB.LBSEQ" Value="127"/>
      <ItemData ItemOID="IT.LB.LBTESTCD" Value="CK"/>
      <ItemData ItemOID="IT.LB.LBTEST" Value="Creatine Kinase"/>
      <ItemData ItemOID="IT.LB.LBCAT" Value="CHEMISTRY"/>
      <ItemData ItemOID="IT.LB.LBORRES" Value="78"/>
      <ItemData ItemOID="IT.LB.LBORRESU" Value="U/L"/>
      <ItemData ItemOID="IT.LB.LBORNRLO" Value="22"/>
      <ItemData ItemOID="IT.LB.LBORNRHI" Value="198"/>
      <ItemData ItemOID="IT.LB.LBSTRESC" Value="78"/>
      <ItemData ItemOID="IT.LB.LBSTRESN" Value="78"/>
      <ItemData ItemOID="IT.LB.LBSTRESU" Value="U/L"/>
      <ItemData ItemOID="IT.LB.LBSTNRLO" Value="22"/>
      <ItemData ItemOID="IT.LB.LBSTNRHI" Value="198"/>
      <ItemData ItemOID="IT.LB.LBNRIND" Value="NORMAL"/>
      <ItemData ItemOID="IT.LB.VISITNUM" Value="7"/>
      <ItemData ItemOID="IT.LB.VISIT" Value="WEEK 6"/>
      <ItemData ItemOID="IT.LB.EPOCH" Value="TREATMENT"/>
      <ItemData ItemOID="IT.LB.LBDTC" Value="2013-01-10T15:20"/>
      <ItemData ItemOID="IT.LB.LBDY" Value="42"/>
    </ItemGroupData>
    <ItemGroupData ItemGroupOID="IG.LB" data:ItemGroupDataSeq="79">
      <ItemData ItemOID="IT.LB.STUDYID" Value="CDISCPILOT01"/>
      <ItemData ItemOID="IT.LB.DOMAIN" Value="LB"/>
      <ItemData ItemOID="IT.LB.USUBJID" Value="CDISC001"/>
      <ItemData ItemOID="IT.LB.LBSEQ" Value="128"/>
      <ItemData ItemOID="IT.LB.LBTESTCD" Value="CL"/>
      <ItemData ItemOID="IT.LB.LBTEST" Value="Chloride"/>
      <ItemData ItemOID="IT.LB.LBCAT" Value="CHEMISTRY"/>
      <ItemData ItemOID="IT.LB.LBORRES" Value="108"/>
      <ItemData ItemOID="IT.LB.LBORRESU" Value="mEq/L"/>
      <ItemData ItemOID="IT.LB.LBORNRLO" Value="94"/>
      <ItemData ItemOID="IT.LB.LBORNRHI" Value="112"/>
      <ItemData ItemOID="IT.LB.LBSTRESC" Value="108"/>
      <ItemData ItemOID="IT.LB.LBSTRESN" Value="108"/>
      <ItemData ItemOID="IT.LB.LBSTRESU" Value="mmol/L"/>
      <ItemData ItemOID="IT.LB.LBSTNRLO" Value="94"/>
      <ItemData ItemOID="IT.LB.LBSTNRHI" Value="112"/>
      <ItemData ItemOID="IT.LB.LBNRIND" Value="NORMAL"/>
      <ItemData ItemOID="IT.LB.VISITNUM" Value="7"/>
      <ItemData ItemOID="IT.LB.VISIT" Value="WEEK 6"/>
      <ItemData ItemOID="IT.LB.EPOCH" Value="TREATMENT"/>
      <ItemData ItemOID="IT.LB.LBDTC" Value="2013-01-10T15:20"/>
      <ItemData ItemOID="IT.LB.LBDY" Value="42"/>
    </ItemGroupData>
    <ItemGroupData ItemGroupOID="IG.LB" data:ItemGroupDataSeq="80">
      <ItemData ItemOID="IT.LB.STUDYID" Value="CDISCPILOT01"/>
      <ItemData ItemOID="IT.LB.DOMAIN" Value="LB"/>
      <ItemData ItemOID="IT.LB.USUBJID" Value="CDISC001"/>
      <ItemData ItemOID="IT.LB.LBSEQ" Value="129"/>
      <ItemData ItemOID="IT.LB.LBTESTCD" Value="CREAT"/>
      <ItemData ItemOID="IT.LB.LBTEST" Value="Creatinine"/>
      <ItemData ItemOID="IT.LB.LBCAT" Value="CHEMISTRY"/>
      <ItemData ItemOID="IT.LB.LBORRES" Value="1.5"/>
      <ItemData ItemOID="IT.LB.LBORRESU" Value="mg/dL"/>
      <ItemData ItemOID="IT.LB.LBORNRLO" Value="0.8"/>
      <ItemData ItemOID="IT.LB.LBORNRHI" Value="1.6"/>
      <ItemData ItemOID="IT.LB.LBSTRESC" Value="132.6"/>
      <ItemData ItemOID="IT.LB.LBSTRESN" Value="132.6"/>
      <ItemData ItemOID="IT.LB.LBSTRESU" Value="umol/L"/>
      <ItemData ItemOID="IT.LB.LBSTNRLO" Value="71"/>
      <ItemData ItemOID="IT.LB.LBSTNRHI" Value="141"/>
      <ItemData ItemOID="IT.LB.LBNRIND" Value="NORMAL"/>
      <ItemData ItemOID="IT.LB.VISITNUM" Value="7"/>
      <ItemData ItemOID="IT.LB.VISIT" Value="WEEK 6"/>
      <ItemData ItemOID="IT.LB.EPOCH" Value="TREATMENT"/>
      <ItemData ItemOID="IT.LB.LBDTC" Value="2013-01-10T15:20"/>
      <ItemData ItemOID="IT.LB.LBDY" Value="42"/>
    </ItemGroupData>
    <ItemGroupData ItemGroupOID="IG.LB" data:ItemGroupDataSeq="81">
      <ItemData ItemOID="IT.LB.STUDYID" Value="CDISCPILOT01"/>
      <ItemData ItemOID="IT.LB.DOMAIN" Value="LB"/>
      <ItemData ItemOID="IT.LB.USUBJID" Value="CDISC001"/>
      <ItemData ItemOID="IT.LB.LBSEQ" Value="131"/>
      <ItemData ItemOID="IT.LB.LBTESTCD" Value="GGT"/>
      <ItemData ItemOID="IT.LB.LBTEST" Value="Gamma Glutamyl Transferase"/>
      <ItemData ItemOID="IT.LB.LBCAT" Value="CHEMISTRY"/>
      <ItemData ItemOID="IT.LB.LBORRES" Value="37"/>
      <ItemData ItemOID="IT.LB.LBORRESU" Value="U/L"/>
      <ItemData ItemOID="IT.LB.LBORNRLO" Value="10"/>
      <ItemData ItemOID="IT.LB.LBORNRHI" Value="50"/>
      <ItemData ItemOID="IT.LB.LBSTRESC" Value="37"/>
      <ItemData ItemOID="IT.LB.LBSTRESN" Value="37"/>
      <ItemData ItemOID="IT.LB.LBSTRESU" Value="U/L"/>
      <ItemData ItemOID="IT.LB.LBSTNRLO" Value="10"/>
      <ItemData ItemOID="IT.LB.LBSTNRHI" Value="50"/>
      <ItemData ItemOID="IT.LB.LBNRIND" Value="NORMAL"/>
      <ItemData ItemOID="IT.LB.VISITNUM" Value="7"/>
      <ItemData ItemOID="IT.LB.VISIT" Value="WEEK 6"/>
      <ItemData ItemOID="IT.LB.EPOCH" Value="TREATMENT"/>
      <ItemData ItemOID="IT.LB.LBDTC" Value="2013-01-10T15:20"/>
      <ItemData ItemOID="IT.LB.LBDY" Value="42"/>
    </ItemGroupData>
    <ItemGroupData ItemGroupOID="IG.LB" data:ItemGroupDataSeq="82">
      <ItemData ItemOID="IT.LB.STUDYID" Value="CDISCPILOT01"/>
      <ItemData ItemOID="IT.LB.DOMAIN" Value="LB"/>
      <ItemData ItemOID="IT.LB.USUBJID" Value="CDISC001"/>
      <ItemData ItemOID="IT.LB.LBSEQ" Value="132"/>
      <ItemData ItemOID="IT.LB.LBTESTCD" Value="GLUC"/>
      <ItemData ItemOID="IT.LB.LBTEST" Value="Glucose"/>
      <ItemData ItemOID="IT.LB.LBCAT" Value="CHEMISTRY"/>
      <ItemData ItemOID="IT.LB.LBORRES" Value="91"/>
      <ItemData ItemOID="IT.LB.LBORRESU" Value="mg/dL"/>
      <ItemData ItemOID="IT.LB.LBORNRLO" Value="50"/>
      <ItemData ItemOID="IT.LB.LBORNRHI" Value="250"/>
      <ItemData ItemOID="IT.LB.LBSTRESC" Value="5.05141"/>
      <ItemData ItemOID="IT.LB.LBSTRESN" Value="5.05141"/>
      <ItemData ItemOID="IT.LB.LBSTRESU" Value="mmol/L"/>
      <ItemData ItemOID="IT.LB.LBSTNRLO" Value="2.8"/>
      <ItemData ItemOID="IT.LB.LBSTNRHI" Value="13.9"/>
      <ItemData ItemOID="IT.LB.LBNRIND" Value="NORMAL"/>
      <ItemData ItemOID="IT.LB.VISITNUM" Value="7"/>
      <ItemData ItemOID="IT.LB.VISIT" Value="WEEK 6"/>
      <ItemData ItemOID="IT.LB.EPOCH" Value="TREATMENT"/>
      <ItemData ItemOID="IT.LB.LBDTC" Value="2013-01-10T15:20"/>
      <ItemData ItemOID="IT.LB.LBDY" Value="42"/>
    </ItemGroupData>
    <ItemGroupData ItemGroupOID="IG.LB" data:ItemGroupDataSeq="83">
      <ItemData ItemOID="IT.LB.STUDYID" Value="CDISCPILOT01"/>
      <ItemData ItemOID="IT.LB.DOMAIN" Value="LB"/>
      <ItemData ItemOID="IT.LB.USUBJID" Value="CDISC001"/>
      <ItemData ItemOID="IT.LB.LBSEQ" Value="135"/>
      <ItemData ItemOID="IT.LB.LBTESTCD" Value="K"/>
      <ItemData ItemOID="IT.LB.LBTEST" Value="Potassium"/>
      <ItemData ItemOID="IT.LB.LBCAT" Value="CHEMISTRY"/>
      <ItemData ItemOID="IT.LB.LBORRES" Value="5.3"/>
      <ItemData ItemOID="IT.LB.LBORRESU" Value="mEq/L"/>
      <ItemData ItemOID="IT.LB.LBORNRLO" Value="3.4"/>
      <ItemData ItemOID="IT.LB.LBORNRHI" Value="5.4"/>
      <ItemData ItemOID="IT.LB.LBSTRESC" Value="5.3"/>
      <ItemData ItemOID="IT.LB.LBSTRESN" Value="5.3"/>
      <ItemData ItemOID="IT.LB.LBSTRESU" Value="mmol/L"/>
      <ItemData ItemOID="IT.LB.LBSTNRLO" Value="3.4"/>
      <ItemData ItemOID="IT.LB.LBSTNRHI" Value="5.4"/>
      <ItemData ItemOID="IT.LB.LBNRIND" Value="NORMAL"/>
      <ItemData ItemOID="IT.LB.VISITNUM" Value="7"/>
      <ItemData ItemOID="IT.LB.VISIT" Value="WEEK 6"/>
      <ItemData ItemOID="IT.LB.EPOCH" Value="TREATMENT"/>
      <ItemData ItemOID="IT.LB.LBDTC" Value="2013-01-10T15:20"/>
      <ItemData ItemOID="IT.LB.LBDY" Value="42"/>
    </ItemGroupData>
    <ItemGroupData ItemGroupOID="IG.LB" data:ItemGroupDataSeq="84">
      <ItemData ItemOID="IT.LB.STUDYID" Value="CDISCPILOT01"/>
      <ItemData ItemOID="IT.LB.DOMAIN" Value="LB"/>
      <ItemData ItemOID="IT.LB.USUBJID" Value="CDISC001"/>
      <ItemData ItemOID="IT.LB.LBSEQ" Value="141"/>
      <ItemData ItemOID="IT.LB.LBTESTCD" Value="SODIUM"/>
      <ItemData ItemOID="IT.LB.LBTEST" Value="Sodium"/>
      <ItemData ItemOID="IT.LB.LBCAT" Value="CHEMISTRY"/>
      <ItemData ItemOID="IT.LB.LBORRES" Value="144"/>
      <ItemData ItemOID="IT.LB.LBORRESU" Value="mEq/L"/>
      <ItemData ItemOID="IT.LB.LBORNRLO" Value="135"/>
      <ItemData ItemOID="IT.LB.LBORNRHI" Value="145"/>
      <ItemData ItemOID="IT.LB.LBSTRESC" Value="144"/>
      <ItemData ItemOID="IT.LB.LBSTRESN" Value="144"/>
      <ItemData ItemOID="IT.LB.LBSTRESU" Value="mmol/L"/>
      <ItemData ItemOID="IT.LB.LBSTNRLO" Value="135"/>
      <ItemData ItemOID="IT.LB.LBSTNRHI" Value="145"/>
      <ItemData ItemOID="IT.LB.LBNRIND" Value="NORMAL"/>
      <ItemData ItemOID="IT.LB.VISITNUM" Value="7"/>
      <ItemData ItemOID="IT.LB.VISIT" Value="WEEK 6"/>
      <ItemData ItemOID="IT.LB.EPOCH" Value="TREATMENT"/>
      <ItemData ItemOID="IT.LB.LBDTC" Value="2013-01-10T15:20"/>
      <ItemData ItemOID="IT.LB.LBDY" Value="42"/>
    </ItemGroupData>
    <ItemGroupData ItemGroupOID="IG.LB" data:ItemGroupDataSeq="85">
      <ItemData ItemOID="IT.LB.STUDYID" Value="CDISCPILOT01"/>
      <ItemData ItemOID="IT.LB.DOMAIN" Value="LB"/>
      <ItemData ItemOID="IT.LB.USUBJID" Value="CDISC001"/>
      <ItemData ItemOID="IT.LB.LBSEQ" Value="142"/>
      <ItemData ItemOID="IT.LB.LBTESTCD" Value="PHOS"/>
      <ItemData ItemOID="IT.LB.LBTEST" Value="Phosphate"/>
      <ItemData ItemOID="IT.LB.LBCAT" Value="CHEMISTRY"/>
      <ItemData ItemOID="IT.LB.LBORRES" Value="3.7"/>
      <ItemData ItemOID="IT.LB.LBORRESU" Value="mg/dL"/>
      <ItemData ItemOID="IT.LB.LBORNRLO" Value="2.2"/>
      <ItemData ItemOID="IT.LB.LBORNRHI" Value="5.1"/>
      <ItemData ItemOID="IT.LB.LBSTRESC" Value="1.19473"/>
      <ItemData ItemOID="IT.LB.LBSTRESN" Value="1.19473"/>
      <ItemData ItemOID="IT.LB.LBSTRESU" Value="mmol/L"/>
      <ItemData ItemOID="IT.LB.LBSTNRLO" Value="0.71"/>
      <ItemData ItemOID="IT.LB.LBSTNRHI" Value="1.65"/>
      <ItemData ItemOID="IT.LB.LBNRIND" Value="NORMAL"/>
      <ItemData ItemOID="IT.LB.VISITNUM" Value="7"/>
      <ItemData ItemOID="IT.LB.VISIT" Value="WEEK 6"/>
      <ItemData ItemOID="IT.LB.EPOCH" Value="TREATMENT"/>
      <ItemData ItemOID="IT.LB.LBDTC" Value="2013-01-10T15:20"/>
      <ItemData ItemOID="IT.LB.LBDY" Value="42"/>
    </ItemGroupData>
    <ItemGroupData ItemGroupOID="IG.LB" data:ItemGroupDataSeq="86">
      <ItemData ItemOID="IT.LB.STUDYID" Value="CDISCPILOT01"/>
      <ItemData ItemOID="IT.LB.DOMAIN" Value="LB"/>
      <ItemData ItemOID="IT.LB.USUBJID" Value="CDISC001"/>
      <ItemData ItemOID="IT.LB.LBSEQ" Value="144"/>
      <ItemData ItemOID="IT.LB.LBTESTCD" Value="PROT"/>
      <ItemData ItemOID="IT.LB.LBTEST" Value="Protein"/>
      <ItemData ItemOID="IT.LB.LBCAT" Value="CHEMISTRY"/>
      <ItemData ItemOID="IT.LB.LBORRES" Value="7.0"/>
      <ItemData ItemOID="IT.LB.LBORRESU" Value="g/dL"/>
      <ItemData ItemOID="IT.LB.LBORNRLO" Value="6"/>
      <ItemData ItemOID="IT.LB.LBORNRHI" Value="8"/>
      <ItemData ItemOID="IT.LB.LBSTRESC" Value="70"/>
      <ItemData ItemOID="IT.LB.LBSTRESN" Value="70"/>
      <ItemData ItemOID="IT.LB.LBSTRESU" Value="g/L"/>
      <ItemData ItemOID="IT.LB.LBSTNRLO" Value="60"/>
      <ItemData ItemOID="IT.LB.LBSTNRHI" Value="80"/>
      <ItemData ItemOID="IT.LB.LBNRIND" Value="NORMAL"/>
      <ItemData ItemOID="IT.LB.VISITNUM" Value="7"/>
      <ItemData ItemOID="IT.LB.VISIT" Value="WEEK 6"/>
      <ItemData ItemOID="IT.LB.EPOCH" Value="TREATMENT"/>
      <ItemData ItemOID="IT.LB.LBDTC" Value="2013-01-10T15:20"/>
      <ItemData ItemOID="IT.LB.LBDY" Value="42"/>
    </ItemGroupData>
    <ItemGroupData ItemGroupOID="IG.LB" data:ItemGroupDataSeq="87">
      <ItemData ItemOID="IT.LB.STUDYID" Value="CDISCPILOT01"/>
      <ItemData ItemOID="IT.LB.DOMAIN" Value="LB"/>
      <ItemData ItemOID="IT.LB.USUBJID" Value="CDISC001"/>
      <ItemData ItemOID="IT.LB.LBSEQ" Value="146"/>
      <ItemData ItemOID="IT.LB.LBTESTCD" Value="URATE"/>
      <ItemData ItemOID="IT.LB.LBTEST" Value="Urate"/>
      <ItemData ItemOID="IT.LB.LBCAT" Value="CHEMISTRY"/>
      <ItemData ItemOID="IT.LB.LBORRES" Value="5.2"/>
      <ItemData ItemOID="IT.LB.LBORRESU" Value="mg/dL"/>
      <ItemData ItemOID="IT.LB.LBORNRLO" Value="2.5"/>
      <ItemData ItemOID="IT.LB.LBORNRHI" Value="7.5"/>
      <ItemData ItemOID="IT.LB.LBSTRESC" Value="309.296"/>
      <ItemData ItemOID="IT.LB.LBSTRESN" Value="309.296"/>
      <ItemData ItemOID="IT.LB.LBSTRESU" Value="umol/L"/>
      <ItemData ItemOID="IT.LB.LBSTNRLO" Value="149"/>
      <ItemData ItemOID="IT.LB.LBSTNRHI" Value="446"/>
      <ItemData ItemOID="IT.LB.LBNRIND" Value="NORMAL"/>
      <ItemData ItemOID="IT.LB.VISITNUM" Value="7"/>
      <ItemData ItemOID="IT.LB.VISIT" Value="WEEK 6"/>
      <ItemData ItemOID="IT.LB.EPOCH" Value="TREATMENT"/>
      <ItemData ItemOID="IT.LB.LBDTC" Value="2013-01-10T15:20"/>
      <ItemData ItemOID="IT.LB.LBDY" Value="42"/>
    </ItemGroupData>
    <ItemGroupData ItemGroupOID="IG.LB" data:ItemGroupDataSeq="88">
      <ItemData ItemOID="IT.LB.STUDYID" Value="CDISCPILOT01"/>
      <ItemData ItemOID="IT.LB.DOMAIN" Value="LB"/>
      <ItemData ItemOID="IT.LB.USUBJID" Value="CDISC001"/>
      <ItemData ItemOID="IT.LB.LBSEQ" Value="148"/>
      <ItemData ItemOID="IT.LB.LBTESTCD" Value="ALB"/>
      <ItemData ItemOID="IT.LB.LBTEST" Value="Albumin"/>
      <ItemData ItemOID="IT.LB.LBCAT" Value="CHEMISTRY"/>
      <ItemData ItemOID="IT.LB.LBORRES" Value="3.9"/>
      <ItemData ItemOID="IT.LB.LBORRESU" Value="g/dL"/>
      <ItemData ItemOID="IT.LB.LBORNRLO" Value="3.5"/>
      <ItemData ItemOID="IT.LB.LBORNRHI" Value="4.6"/>
      <ItemData ItemOID="IT.LB.LBSTRESC" Value="39"/>
      <ItemData ItemOID="IT.LB.LBSTRESN" Value="39"/>
      <ItemData ItemOID="IT.LB.LBSTRESU" Value="g/L"/>
      <ItemData ItemOID="IT.LB.LBSTNRLO" Value="35"/>
      <ItemData ItemOID="IT.LB.LBSTNRHI" Value="46"/>
      <ItemData ItemOID="IT.LB.LBNRIND" Value="NORMAL"/>
      <ItemData ItemOID="IT.LB.VISITNUM" Value="8"/>
      <ItemData ItemOID="IT.LB.VISIT" Value="WEEK 8"/>
      <ItemData ItemOID="IT.LB.EPOCH" Value="TREATMENT"/>
      <ItemData ItemOID="IT.LB.LBDTC" Value="2013-01-23T12:13"/>
      <ItemData ItemOID="IT.LB.LBDY" Value="55"/>
    </ItemGroupData>
    <ItemGroupData ItemGroupOID="IG.LB" data:ItemGroupDataSeq="89">
      <ItemData ItemOID="IT.LB.STUDYID" Value="CDISCPILOT01"/>
      <ItemData ItemOID="IT.LB.DOMAIN" Value="LB"/>
      <ItemData ItemOID="IT.LB.USUBJID" Value="CDISC001"/>
      <ItemData ItemOID="IT.LB.LBSEQ" Value="149"/>
      <ItemData ItemOID="IT.LB.LBTESTCD" Value="ALP"/>
      <ItemData ItemOID="IT.LB.LBTEST" Value="Alkaline Phosphatase"/>
      <ItemData ItemOID="IT.LB.LBCAT" Value="CHEMISTRY"/>
      <ItemData ItemOID="IT.LB.LBORRES" Value="98"/>
      <ItemData ItemOID="IT.LB.LBORRESU" Value="U/L"/>
      <ItemData ItemOID="IT.LB.LBORNRLO" Value="35"/>
      <ItemData ItemOID="IT.LB.LBORNRHI" Value="115"/>
      <ItemData ItemOID="IT.LB.LBSTRESC" Value="98"/>
      <ItemData ItemOID="IT.LB.LBSTRESN" Value="98"/>
      <ItemData ItemOID="IT.LB.LBSTRESU" Value="U/L"/>
      <ItemData ItemOID="IT.LB.LBSTNRLO" Value="35"/>
      <ItemData ItemOID="IT.LB.LBSTNRHI" Value="115"/>
      <ItemData ItemOID="IT.LB.LBNRIND" Value="NORMAL"/>
      <ItemData ItemOID="IT.LB.VISITNUM" Value="8"/>
      <ItemData ItemOID="IT.LB.VISIT" Value="WEEK 8"/>
      <ItemData ItemOID="IT.LB.EPOCH" Value="TREATMENT"/>
      <ItemData ItemOID="IT.LB.LBDTC" Value="2013-01-23T12:13"/>
      <ItemData ItemOID="IT.LB.LBDY" Value="55"/>
    </ItemGroupData>
    <ItemGroupData ItemGroupOID="IG.LB" data:ItemGroupDataSeq="90">
      <ItemData ItemOID="IT.LB.STUDYID" Value="CDISCPILOT01"/>
      <ItemData ItemOID="IT.LB.DOMAIN" Value="LB"/>
      <ItemData ItemOID="IT.LB.USUBJID" Value="CDISC001"/>
      <ItemData ItemOID="IT.LB.LBSEQ" Value="150"/>
      <ItemData ItemOID="IT.LB.LBTESTCD" Value="ALT"/>
      <ItemData ItemOID="IT.LB.LBTEST" Value="Alanine Aminotransferase"/>
      <ItemData ItemOID="IT.LB.LBCAT" Value="CHEMISTRY"/>
      <ItemData ItemOID="IT.LB.LBORRES" Value="16"/>
      <ItemData ItemOID="IT.LB.LBORRESU" Value="U/L"/>
      <ItemData ItemOID="IT.LB.LBORNRLO" Value="6"/>
      <ItemData ItemOID="IT.LB.LBORNRHI" Value="35"/>
      <ItemData ItemOID="IT.LB.LBSTRESC" Value="16"/>
      <ItemData ItemOID="IT.LB.LBSTRESN" Value="16"/>
      <ItemData ItemOID="IT.LB.LBSTRESU" Value="U/L"/>
      <ItemData ItemOID="IT.LB.LBSTNRLO" Value="6"/>
      <ItemData ItemOID="IT.LB.LBSTNRHI" Value="35"/>
      <ItemData ItemOID="IT.LB.LBNRIND" Value="NORMAL"/>
      <ItemData ItemOID="IT.LB.VISITNUM" Value="8"/>
      <ItemData ItemOID="IT.LB.VISIT" Value="WEEK 8"/>
      <ItemData ItemOID="IT.LB.EPOCH" Value="TREATMENT"/>
      <ItemData ItemOID="IT.LB.LBDTC" Value="2013-01-23T12:13"/>
      <ItemData ItemOID="IT.LB.LBDY" Value="55"/>
    </ItemGroupData>
    <ItemGroupData ItemGroupOID="IG.LB" data:ItemGroupDataSeq="91">
      <ItemData ItemOID="IT.LB.STUDYID" Value="CDISCPILOT01"/>
      <ItemData ItemOID="IT.LB.DOMAIN" Value="LB"/>
      <ItemData ItemOID="IT.LB.USUBJID" Value="CDISC001"/>
      <ItemData ItemOID="IT.LB.LBSEQ" Value="151"/>
      <ItemData ItemOID="IT.LB.LBTESTCD" Value="AST"/>
      <ItemData ItemOID="IT.LB.LBTEST" Value="Aspartate Aminotransferase"/>
      <ItemData ItemOID="IT.LB.LBCAT" Value="CHEMISTRY"/>
      <ItemData ItemOID="IT.LB.LBORRES" Value="25"/>
      <ItemData ItemOID="IT.LB.LBORRESU" Value="U/L"/>
      <ItemData ItemOID="IT.LB.LBORNRLO" Value="11"/>
      <ItemData ItemOID="IT.LB.LBORNRHI" Value="36"/>
      <ItemData ItemOID="IT.LB.LBSTRESC" Value="25"/>
      <ItemData ItemOID="IT.LB.LBSTRESN" Value="25"/>
      <ItemData ItemOID="IT.LB.LBSTRESU" Value="U/L"/>
      <ItemData ItemOID="IT.LB.LBSTNRLO" Value="11"/>
      <ItemData ItemOID="IT.LB.LBSTNRHI" Value="36"/>
      <ItemData ItemOID="IT.LB.LBNRIND" Value="NORMAL"/>
      <ItemData ItemOID="IT.LB.VISITNUM" Value="8"/>
      <ItemData ItemOID="IT.LB.VISIT" Value="WEEK 8"/>
      <ItemData ItemOID="IT.LB.EPOCH" Value="TREATMENT"/>
      <ItemData ItemOID="IT.LB.LBDTC" Value="2013-01-23T12:13"/>
      <ItemData ItemOID="IT.LB.LBDY" Value="55"/>
    </ItemGroupData>
    <ItemGroupData ItemGroupOID="IG.LB" data:ItemGroupDataSeq="92">
      <ItemData ItemOID="IT.LB.STUDYID" Value="CDISCPILOT01"/>
      <ItemData ItemOID="IT.LB.DOMAIN" Value="LB"/>
      <ItemData ItemOID="IT.LB.USUBJID" Value="CDISC001"/>
      <ItemData ItemOID="IT.LB.LBSEQ" Value="153"/>
      <ItemData ItemOID="IT.LB.LBTESTCD" Value="BILI"/>
      <ItemData ItemOID="IT.LB.LBTEST" Value="Bilirubin"/>
      <ItemData ItemOID="IT.LB.LBCAT" Value="CHEMISTRY"/>
      <ItemData ItemOID="IT.LB.LBORRES" Value="0.5"/>
      <ItemData ItemOID="IT.LB.LBORRESU" Value="mg/dL"/>
      <ItemData ItemOID="IT.LB.LBORNRLO" Value="0.2"/>
      <ItemData ItemOID="IT.LB.LBORNRHI" Value="1.2"/>
      <ItemData ItemOID="IT.LB.LBSTRESC" Value="8.55"/>
      <ItemData ItemOID="IT.LB.LBSTRESN" Value="8.55"/>
      <ItemData ItemOID="IT.LB.LBSTRESU" Value="umol/L"/>
      <ItemData ItemOID="IT.LB.LBSTNRLO" Value="3"/>
      <ItemData ItemOID="IT.LB.LBSTNRHI" Value="21"/>
      <ItemData ItemOID="IT.LB.LBNRIND" Value="NORMAL"/>
      <ItemData ItemOID="IT.LB.VISITNUM" Value="8"/>
      <ItemData ItemOID="IT.LB.VISIT" Value="WEEK 8"/>
      <ItemData ItemOID="IT.LB.EPOCH" Value="TREATMENT"/>
      <ItemData ItemOID="IT.LB.LBDTC" Value="2013-01-23T12:13"/>
      <ItemData ItemOID="IT.LB.LBDY" Value="55"/>
    </ItemGroupData>
    <ItemGroupData ItemGroupOID="IG.LB" data:ItemGroupDataSeq="93">
      <ItemData ItemOID="IT.LB.STUDYID" Value="CDISCPILOT01"/>
      <ItemData ItemOID="IT.LB.DOMAIN" Value="LB"/>
      <ItemData ItemOID="IT.LB.USUBJID" Value="CDISC001"/>
      <ItemData ItemOID="IT.LB.LBSEQ" Value="154"/>
      <ItemData ItemOID="IT.LB.LBTESTCD" Value="UREAN"/>
      <ItemData ItemOID="IT.LB.LBTEST" Value="Urea Nitrogen"/>
      <ItemData ItemOID="IT.LB.LBCAT" Value="CHEMISTRY"/>
      <ItemData ItemOID="IT.LB.LBORRES" Value="22"/>
      <ItemData ItemOID="IT.LB.LBORRESU" Value="mg/dL"/>
      <ItemData ItemOID="IT.LB.LBORNRLO" Value="4"/>
      <ItemData ItemOID="IT.LB.LBORNRHI" Value="24"/>
      <ItemData ItemOID="IT.LB.LBSTRESC" Value="7.854"/>
      <ItemData ItemOID="IT.LB.LBSTRESN" Value="7.854"/>
      <ItemData ItemOID="IT.LB.LBSTRESU" Value="mmol/L"/>
      <ItemData ItemOID="IT.LB.LBSTNRLO" Value="1.4"/>
      <ItemData ItemOID="IT.LB.LBSTNRHI" Value="8.6"/>
      <ItemData ItemOID="IT.LB.LBNRIND" Value="NORMAL"/>
      <ItemData ItemOID="IT.LB.VISITNUM" Value="8"/>
      <ItemData ItemOID="IT.LB.VISIT" Value="WEEK 8"/>
      <ItemData ItemOID="IT.LB.EPOCH" Value="TREATMENT"/>
      <ItemData ItemOID="IT.LB.LBDTC" Value="2013-01-23T12:13"/>
      <ItemData ItemOID="IT.LB.LBDY" Value="55"/>
    </ItemGroupData>
    <ItemGroupData ItemGroupOID="IG.LB" data:ItemGroupDataSeq="94">
      <ItemData ItemOID="IT.LB.STUDYID" Value="CDISCPILOT01"/>
      <ItemData ItemOID="IT.LB.DOMAIN" Value="LB"/>
      <ItemData ItemOID="IT.LB.USUBJID" Value="CDISC001"/>
      <ItemData ItemOID="IT.LB.LBSEQ" Value="155"/>
      <ItemData ItemOID="IT.LB.LBTESTCD" Value="CA"/>
      <ItemData ItemOID="IT.LB.LBTEST" Value="Calcium"/>
      <ItemData ItemOID="IT.LB.LBCAT" Value="CHEMISTRY"/>
      <ItemData ItemOID="IT.LB.LBORRES" Value="8.9"/>
      <ItemData ItemOID="IT.LB.LBORRESU" Value="mg/dL"/>
      <ItemData ItemOID="IT.LB.LBORNRLO" Value="8.4"/>
      <ItemData ItemOID="IT.LB.LBORNRHI" Value="10.3"/>
      <ItemData ItemOID="IT.LB.LBSTRESC" Value="2.22055"/>
      <ItemData ItemOID="IT.LB.LBSTRESN" Value="2.22055"/>
      <ItemData ItemOID="IT.LB.LBSTRESU" Value="mmol/L"/>
      <ItemData ItemOID="IT.LB.LBSTNRLO" Value="2.1"/>
      <ItemData ItemOID="IT.LB.LBSTNRHI" Value="2.57"/>
      <ItemData ItemOID="IT.LB.LBNRIND" Value="NORMAL"/>
      <ItemData ItemOID="IT.LB.VISITNUM" Value="8"/>
      <ItemData ItemOID="IT.LB.VISIT" Value="WEEK 8"/>
      <ItemData ItemOID="IT.LB.EPOCH" Value="TREATMENT"/>
      <ItemData ItemOID="IT.LB.LBDTC" Value="2013-01-23T12:13"/>
      <ItemData ItemOID="IT.LB.LBDY" Value="55"/>
    </ItemGroupData>
    <ItemGroupData ItemGroupOID="IG.LB" data:ItemGroupDataSeq="95">
      <ItemData ItemOID="IT.LB.STUDYID" Value="CDISCPILOT01"/>
      <ItemData ItemOID="IT.LB.DOMAIN" Value="LB"/>
      <ItemData ItemOID="IT.LB.USUBJID" Value="CDISC001"/>
      <ItemData ItemOID="IT.LB.LBSEQ" Value="156"/>
      <ItemData ItemOID="IT.LB.LBTESTCD" Value="CHOL"/>
      <ItemData ItemOID="IT.LB.LBTEST" Value="Cholesterol"/>
      <ItemData ItemOID="IT.LB.LBCAT" Value="CHEMISTRY"/>
      <ItemData ItemOID="IT.LB.LBORRES" Value="252"/>
      <ItemData ItemOID="IT.LB.LBORRESU" Value="mg/dL"/>
      <ItemData ItemOID="IT.LB.LBORNRLO" Value="149"/>
      <ItemData ItemOID="IT.LB.LBORNRHI" Value="286"/>
      <ItemData ItemOID="IT.LB.LBSTRESC" Value="6.51672"/>
      <ItemData ItemOID="IT.LB.LBSTRESN" Value="6.51672"/>
      <ItemData ItemOID="IT.LB.LBSTRESU" Value="mmol/L"/>
      <ItemData ItemOID="IT.LB.LBSTNRLO" Value="3.85"/>
      <ItemData ItemOID="IT.LB.LBSTNRHI" Value="7.4"/>
      <ItemData ItemOID="IT.LB.LBNRIND" Value="NORMAL"/>
      <ItemData ItemOID="IT.LB.VISITNUM" Value="8"/>
      <ItemData ItemOID="IT.LB.VISIT" Value="WEEK 8"/>
      <ItemData ItemOID="IT.LB.EPOCH" Value="TREATMENT"/>
      <ItemData ItemOID="IT.LB.LBDTC" Value="2013-01-23T12:13"/>
      <ItemData ItemOID="IT.LB.LBDY" Value="55"/>
    </ItemGroupData>
    <ItemGroupData ItemGroupOID="IG.LB" data:ItemGroupDataSeq="96">
      <ItemData ItemOID="IT.LB.STUDYID" Value="CDISCPILOT01"/>
      <ItemData ItemOID="IT.LB.DOMAIN" Value="LB"/>
      <ItemData ItemOID="IT.LB.USUBJID" Value="CDISC001"/>
      <ItemData ItemOID="IT.LB.LBSEQ" Value="157"/>
      <ItemData ItemOID="IT.LB.LBTESTCD" Value="CK"/>
      <ItemData ItemOID="IT.LB.LBTEST" Value="Creatine Kinase"/>
      <ItemData ItemOID="IT.LB.LBCAT" Value="CHEMISTRY"/>
      <ItemData ItemOID="IT.LB.LBORRES" Value="94"/>
      <ItemData ItemOID="IT.LB.LBORRESU" Value="U/L"/>
      <ItemData ItemOID="IT.LB.LBORNRLO" Value="22"/>
      <ItemData ItemOID="IT.LB.LBORNRHI" Value="198"/>
      <ItemData ItemOID="IT.LB.LBSTRESC" Value="94"/>
      <ItemData ItemOID="IT.LB.LBSTRESN" Value="94"/>
      <ItemData ItemOID="IT.LB.LBSTRESU" Value="U/L"/>
      <ItemData ItemOID="IT.LB.LBSTNRLO" Value="22"/>
      <ItemData ItemOID="IT.LB.LBSTNRHI" Value="198"/>
      <ItemData ItemOID="IT.LB.LBNRIND" Value="NORMAL"/>
      <ItemData ItemOID="IT.LB.VISITNUM" Value="8"/>
      <ItemData ItemOID="IT.LB.VISIT" Value="WEEK 8"/>
      <ItemData ItemOID="IT.LB.EPOCH" Value="TREATMENT"/>
      <ItemData ItemOID="IT.LB.LBDTC" Value="2013-01-23T12:13"/>
      <ItemData ItemOID="IT.LB.LBDY" Value="55"/>
    </ItemGroupData>
    <ItemGroupData ItemGroupOID="IG.LB" data:ItemGroupDataSeq="97">
      <ItemData ItemOID="IT.LB.STUDYID" Value="CDISCPILOT01"/>
      <ItemData ItemOID="IT.LB.DOMAIN" Value="LB"/>
      <ItemData ItemOID="IT.LB.USUBJID" Value="CDISC001"/>
      <ItemData ItemOID="IT.LB.LBSEQ" Value="158"/>
      <ItemData ItemOID="IT.LB.LBTESTCD" Value="CL"/>
      <ItemData ItemOID="IT.LB.LBTEST" Value="Chloride"/>
      <ItemData ItemOID="IT.LB.LBCAT" Value="CHEMISTRY"/>
      <ItemData ItemOID="IT.LB.LBORRES" Value="104"/>
      <ItemData ItemOID="IT.LB.LBORRESU" Value="mEq/L"/>
      <ItemData ItemOID="IT.LB.LBORNRLO" Value="94"/>
      <ItemData ItemOID="IT.LB.LBORNRHI" Value="112"/>
      <ItemData ItemOID="IT.LB.LBSTRESC" Value="104"/>
      <ItemData ItemOID="IT.LB.LBSTRESN" Value="104"/>
      <ItemData ItemOID="IT.LB.LBSTRESU" Value="mmol/L"/>
      <ItemData ItemOID="IT.LB.LBSTNRLO" Value="94"/>
      <ItemData ItemOID="IT.LB.LBSTNRHI" Value="112"/>
      <ItemData ItemOID="IT.LB.LBNRIND" Value="NORMAL"/>
      <ItemData ItemOID="IT.LB.VISITNUM" Value="8"/>
      <ItemData ItemOID="IT.LB.VISIT" Value="WEEK 8"/>
      <ItemData ItemOID="IT.LB.EPOCH" Value="TREATMENT"/>
      <ItemData ItemOID="IT.LB.LBDTC" Value="2013-01-23T12:13"/>
      <ItemData ItemOID="IT.LB.LBDY" Value="55"/>
    </ItemGroupData>
    <ItemGroupData ItemGroupOID="IG.LB" data:ItemGroupDataSeq="98">
      <ItemData ItemOID="IT.LB.STUDYID" Value="CDISCPILOT01"/>
      <ItemData ItemOID="IT.LB.DOMAIN" Value="LB"/>
      <ItemData ItemOID="IT.LB.USUBJID" Value="CDISC001"/>
      <ItemData ItemOID="IT.LB.LBSEQ" Value="160"/>
      <ItemData ItemOID="IT.LB.LBTESTCD" Value="CREAT"/>
      <ItemData ItemOID="IT.LB.LBTEST" Value="Creatinine"/>
      <ItemData ItemOID="IT.LB.LBCAT" Value="CHEMISTRY"/>
      <ItemData ItemOID="IT.LB.LBORRES" Value="1.3"/>
      <ItemData ItemOID="IT.LB.LBORRESU" Value="mg/dL"/>
      <ItemData ItemOID="IT.LB.LBORNRLO" Value="0.8"/>
      <ItemData ItemOID="IT.LB.LBORNRHI" Value="1.6"/>
      <ItemData ItemOID="IT.LB.LBSTRESC" Value="114.92"/>
      <ItemData ItemOID="IT.LB.LBSTRESN" Value="114.92"/>
      <ItemData ItemOID="IT.LB.LBSTRESU" Value="umol/L"/>
      <ItemData ItemOID="IT.LB.LBSTNRLO" Value="71"/>
      <ItemData ItemOID="IT.LB.LBSTNRHI" Value="141"/>
      <ItemData ItemOID="IT.LB.LBNRIND" Value="NORMAL"/>
      <ItemData ItemOID="IT.LB.VISITNUM" Value="8"/>
      <ItemData ItemOID="IT.LB.VISIT" Value="WEEK 8"/>
      <ItemData ItemOID="IT.LB.EPOCH" Value="TREATMENT"/>
      <ItemData ItemOID="IT.LB.LBDTC" Value="2013-01-23T12:13"/>
      <ItemData ItemOID="IT.LB.LBDY" Value="55"/>
    </ItemGroupData>
    <ItemGroupData ItemGroupOID="IG.LB" data:ItemGroupDataSeq="99">
      <ItemData ItemOID="IT.LB.STUDYID" Value="CDISCPILOT01"/>
      <ItemData ItemOID="IT.LB.DOMAIN" Value="LB"/>
      <ItemData ItemOID="IT.LB.USUBJID" Value="CDISC001"/>
      <ItemData ItemOID="IT.LB.LBSEQ" Value="162"/>
      <ItemData ItemOID="IT.LB.LBTESTCD" Value="GGT"/>
      <ItemData ItemOID="IT.LB.LBTEST" Value="Gamma Glutamyl Transferase"/>
      <ItemData ItemOID="IT.LB.LBCAT" Value="CHEMISTRY"/>
      <ItemData ItemOID="IT.LB.LBORRES" Value="34"/>
      <ItemData ItemOID="IT.LB.LBORRESU" Value="U/L"/>
      <ItemData ItemOID="IT.LB.LBORNRLO" Value="10"/>
      <ItemData ItemOID="IT.LB.LBORNRHI" Value="50"/>
      <ItemData ItemOID="IT.LB.LBSTRESC" Value="34"/>
      <ItemData ItemOID="IT.LB.LBSTRESN" Value="34"/>
      <ItemData ItemOID="IT.LB.LBSTRESU" Value="U/L"/>
      <ItemData ItemOID="IT.LB.LBSTNRLO" Value="10"/>
      <ItemData ItemOID="IT.LB.LBSTNRHI" Value="50"/>
      <ItemData ItemOID="IT.LB.LBNRIND" Value="NORMAL"/>
      <ItemData ItemOID="IT.LB.VISITNUM" Value="8"/>
      <ItemData ItemOID="IT.LB.VISIT" Value="WEEK 8"/>
      <ItemData ItemOID="IT.LB.EPOCH" Value="TREATMENT"/>
      <ItemData ItemOID="IT.LB.LBDTC" Value="2013-01-23T12:13"/>
      <ItemData ItemOID="IT.LB.LBDY" Value="55"/>
    </ItemGroupData>
    <ItemGroupData ItemGroupOID="IG.LB" data:ItemGroupDataSeq="100">
      <ItemData ItemOID="IT.LB.STUDYID" Value="CDISCPILOT01"/>
      <ItemData ItemOID="IT.LB.DOMAIN" Value="LB"/>
      <ItemData ItemOID="IT.LB.USUBJID" Value="CDISC001"/>
      <ItemData ItemOID="IT.LB.LBSEQ" Value="163"/>
      <ItemData ItemOID="IT.LB.LBTESTCD" Value="GLUC"/>
      <ItemData ItemOID="IT.LB.LBTEST" Value="Glucose"/>
      <ItemData ItemOID="IT.LB.LBCAT" Value="CHEMISTRY"/>
      <ItemData ItemOID="IT.LB.LBORRES" Value="79"/>
      <ItemData ItemOID="IT.LB.LBORRESU" Value="mg/dL"/>
      <ItemData ItemOID="IT.LB.LBORNRLO" Value="50"/>
      <ItemData ItemOID="IT.LB.LBORNRHI" Value="250"/>
      <ItemData ItemOID="IT.LB.LBSTRESC" Value="4.38529"/>
      <ItemData ItemOID="IT.LB.LBSTRESN" Value="4.38529"/>
      <ItemData ItemOID="IT.LB.LBSTRESU" Value="mmol/L"/>
      <ItemData ItemOID="IT.LB.LBSTNRLO" Value="2.8"/>
      <ItemData ItemOID="IT.LB.LBSTNRHI" Value="13.9"/>
      <ItemData ItemOID="IT.LB.LBNRIND" Value="NORMAL"/>
      <ItemData ItemOID="IT.LB.VISITNUM" Value="8"/>
      <ItemData ItemOID="IT.LB.VISIT" Value="WEEK 8"/>
      <ItemData ItemOID="IT.LB.EPOCH" Value="TREATMENT"/>
      <ItemData ItemOID="IT.LB.LBDTC" Value="2013-01-23T12:13"/>
      <ItemData ItemOID="IT.LB.LBDY" Value="55"/>
    </ItemGroupData>
    <ItemGroupData ItemGroupOID="IG.LB" data:ItemGroupDataSeq="101">
      <ItemData ItemOID="IT.LB.STUDYID" Value="CDISCPILOT01"/>
      <ItemData ItemOID="IT.LB.DOMAIN" Value="LB"/>
      <ItemData ItemOID="IT.LB.USUBJID" Value="CDISC001"/>
      <ItemData ItemOID="IT.LB.LBSEQ" Value="166"/>
      <ItemData ItemOID="IT.LB.LBTESTCD" Value="K"/>
      <ItemData ItemOID="IT.LB.LBTEST" Value="Potassium"/>
      <ItemData ItemOID="IT.LB.LBCAT" Value="CHEMISTRY"/>
      <ItemData ItemOID="IT.LB.LBORRES" Value="4.7"/>
      <ItemData ItemOID="IT.LB.LBORRESU" Value="mEq/L"/>
      <ItemData ItemOID="IT.LB.LBORNRLO" Value="3.4"/>
      <ItemData ItemOID="IT.LB.LBORNRHI" Value="5.4"/>
      <ItemData ItemOID="IT.LB.LBSTRESC" Value="4.7"/>
      <ItemData ItemOID="IT.LB.LBSTRESN" Value="4.7"/>
      <ItemData ItemOID="IT.LB.LBSTRESU" Value="mmol/L"/>
      <ItemData ItemOID="IT.LB.LBSTNRLO" Value="3.4"/>
      <ItemData ItemOID="IT.LB.LBSTNRHI" Value="5.4"/>
      <ItemData ItemOID="IT.LB.LBNRIND" Value="NORMAL"/>
      <ItemData ItemOID="IT.LB.VISITNUM" Value="8"/>
      <ItemData ItemOID="IT.LB.VISIT" Value="WEEK 8"/>
      <ItemData ItemOID="IT.LB.EPOCH" Value="TREATMENT"/>
      <ItemData ItemOID="IT.LB.LBDTC" Value="2013-01-23T12:13"/>
      <ItemData ItemOID="IT.LB.LBDY" Value="55"/>
    </ItemGroupData>
    <ItemGroupData ItemGroupOID="IG.LB" data:ItemGroupDataSeq="102">
      <ItemData ItemOID="IT.LB.STUDYID" Value="CDISCPILOT01"/>
      <ItemData ItemOID="IT.LB.DOMAIN" Value="LB"/>
      <ItemData ItemOID="IT.LB.USUBJID" Value="CDISC001"/>
      <ItemData ItemOID="IT.LB.LBSEQ" Value="173"/>
      <ItemData ItemOID="IT.LB.LBTESTCD" Value="SODIUM"/>
      <ItemData ItemOID="IT.LB.LBTEST" Value="Sodium"/>
      <ItemData ItemOID="IT.LB.LBCAT" Value="CHEMISTRY"/>
      <ItemData ItemOID="IT.LB.LBORRES" Value="141"/>
      <ItemData ItemOID="IT.LB.LBORRESU" Value="mEq/L"/>
      <ItemData ItemOID="IT.LB.LBORNRLO" Value="135"/>
      <ItemData ItemOID="IT.LB.LBORNRHI" Value="145"/>
      <ItemData ItemOID="IT.LB.LBSTRESC" Value="141"/>
      <ItemData ItemOID="IT.LB.LBSTRESN" Value="141"/>
      <ItemData ItemOID="IT.LB.LBSTRESU" Value="mmol/L"/>
      <ItemData ItemOID="IT.LB.LBSTNRLO" Value="135"/>
      <ItemData ItemOID="IT.LB.LBSTNRHI" Value="145"/>
      <ItemData ItemOID="IT.LB.LBNRIND" Value="NORMAL"/>
      <ItemData ItemOID="IT.LB.VISITNUM" Value="8"/>
      <ItemData ItemOID="IT.LB.VISIT" Value="WEEK 8"/>
      <ItemData ItemOID="IT.LB.EPOCH" Value="TREATMENT"/>
      <ItemData ItemOID="IT.LB.LBDTC" Value="2013-01-23T12:13"/>
      <ItemData ItemOID="IT.LB.LBDY" Value="55"/>
    </ItemGroupData>
    <ItemGroupData ItemGroupOID="IG.LB" data:ItemGroupDataSeq="103">
      <ItemData ItemOID="IT.LB.STUDYID" Value="CDISCPILOT01"/>
      <ItemData ItemOID="IT.LB.DOMAIN" Value="LB"/>
      <ItemData ItemOID="IT.LB.USUBJID" Value="CDISC001"/>
      <ItemData ItemOID="IT.LB.LBSEQ" Value="175"/>
      <ItemData ItemOID="IT.LB.LBTESTCD" Value="PHOS"/>
      <ItemData ItemOID="IT.LB.LBTEST" Value="Phosphate"/>
      <ItemData ItemOID="IT.LB.LBCAT" Value="CHEMISTRY"/>
      <ItemData ItemOID="IT.LB.LBORRES" Value="3.4"/>
      <ItemData ItemOID="IT.LB.LBORRESU" Value="mg/dL"/>
      <ItemData ItemOID="IT.LB.LBORNRLO" Value="2.2"/>
      <ItemData ItemOID="IT.LB.LBORNRHI" Value="5.1"/>
      <ItemData ItemOID="IT.LB.LBSTRESC" Value="1.09786"/>
      <ItemData ItemOID="IT.LB.LBSTRESN" Value="1.09786"/>
      <ItemData ItemOID="IT.LB.LBSTRESU" Value="mmol/L"/>
      <ItemData ItemOID="IT.LB.LBSTNRLO" Value="0.71"/>
      <ItemData ItemOID="IT.LB.LBSTNRHI" Value="1.65"/>
      <ItemData ItemOID="IT.LB.LBNRIND" Value="NORMAL"/>
      <ItemData ItemOID="IT.LB.VISITNUM" Value="8"/>
      <ItemData ItemOID="IT.LB.VISIT" Value="WEEK 8"/>
      <ItemData ItemOID="IT.LB.EPOCH" Value="TREATMENT"/>
      <ItemData ItemOID="IT.LB.LBDTC" Value="2013-01-23T12:13"/>
      <ItemData ItemOID="IT.LB.LBDY" Value="55"/>
    </ItemGroupData>
    <ItemGroupData ItemGroupOID="IG.LB" data:ItemGroupDataSeq="104">
      <ItemData ItemOID="IT.LB.STUDYID" Value="CDISCPILOT01"/>
      <ItemData ItemOID="IT.LB.DOMAIN" Value="LB"/>
      <ItemData ItemOID="IT.LB.USUBJID" Value="CDISC001"/>
      <ItemData ItemOID="IT.LB.LBSEQ" Value="177"/>
      <ItemData ItemOID="IT.LB.LBTESTCD" Value="PROT"/>
      <ItemData ItemOID="IT.LB.LBTEST" Value="Protein"/>
      <ItemData ItemOID="IT.LB.LBCAT" Value="CHEMISTRY"/>
      <ItemData ItemOID="IT.LB.LBORRES" Value="7.1"/>
      <ItemData ItemOID="IT.LB.LBORRESU" Value="g/dL"/>
      <ItemData ItemOID="IT.LB.LBORNRLO" Value="6"/>
      <ItemData ItemOID="IT.LB.LBORNRHI" Value="8"/>
      <ItemData ItemOID="IT.LB.LBSTRESC" Value="71"/>
      <ItemData ItemOID="IT.LB.LBSTRESN" Value="71"/>
      <ItemData ItemOID="IT.LB.LBSTRESU" Value="g/L"/>
      <ItemData ItemOID="IT.LB.LBSTNRLO" Value="60"/>
      <ItemData ItemOID="IT.LB.LBSTNRHI" Value="80"/>
      <ItemData ItemOID="IT.LB.LBNRIND" Value="NORMAL"/>
      <ItemData ItemOID="IT.LB.VISITNUM" Value="8"/>
      <ItemData ItemOID="IT.LB.VISIT" Value="WEEK 8"/>
      <ItemData ItemOID="IT.LB.EPOCH" Value="TREATMENT"/>
      <ItemData ItemOID="IT.LB.LBDTC" Value="2013-01-23T12:13"/>
      <ItemData ItemOID="IT.LB.LBDY" Value="55"/>
    </ItemGroupData>
    <ItemGroupData ItemGroupOID="IG.LB" data:ItemGroupDataSeq="105">
      <ItemData ItemOID="IT.LB.STUDYID" Value="CDISCPILOT01"/>
      <ItemData ItemOID="IT.LB.DOMAIN" Value="LB"/>
      <ItemData ItemOID="IT.LB.USUBJID" Value="CDISC001"/>
      <ItemData ItemOID="IT.LB.LBSEQ" Value="180"/>
      <ItemData ItemOID="IT.LB.LBTESTCD" Value="URATE"/>
      <ItemData ItemOID="IT.LB.LBTEST" Value="Urate"/>
      <ItemData ItemOID="IT.LB.LBCAT" Value="CHEMISTRY"/>
      <ItemData ItemOID="IT.LB.LBORRES" Value="4.5"/>
      <ItemData ItemOID="IT.LB.LBORRESU" Value="mg/dL"/>
      <ItemData ItemOID="IT.LB.LBORNRLO" Value="2.5"/>
      <ItemData ItemOID="IT.LB.LBORNRHI" Value="7.5"/>
      <ItemData ItemOID="IT.LB.LBSTRESC" Value="267.66"/>
      <ItemData ItemOID="IT.LB.LBSTRESN" Value="267.66"/>
      <ItemData ItemOID="IT.LB.LBSTRESU" Value="umol/L"/>
      <ItemData ItemOID="IT.LB.LBSTNRLO" Value="149"/>
      <ItemData ItemOID="IT.LB.LBSTNRHI" Value="446"/>
      <ItemData ItemOID="IT.LB.LBNRIND" Value="NORMAL"/>
      <ItemData ItemOID="IT.LB.VISITNUM" Value="8"/>
      <ItemData ItemOID="IT.LB.VISIT" Value="WEEK 8"/>
      <ItemData ItemOID="IT.LB.EPOCH" Value="TREATMENT"/>
      <ItemData ItemOID="IT.LB.LBDTC" Value="2013-01-23T12:13"/>
      <ItemData ItemOID="IT.LB.LBDY" Value="55"/>
    </ItemGroupData>
    <ItemGroupData ItemGroupOID="IG.LB" data:ItemGroupDataSeq="106">
      <ItemData ItemOID="IT.LB.STUDYID" Value="CDISCPILOT01"/>
      <ItemData ItemOID="IT.LB.DOMAIN" Value="LB"/>
      <ItemData ItemOID="IT.LB.USUBJID" Value="CDISC002"/>
      <ItemData ItemOID="IT.LB.LBSEQ" Value="1"/>
      <ItemData ItemOID="IT.LB.LBTESTCD" Value="ALB"/>
      <ItemData ItemOID="IT.LB.LBTEST" Value="Albumin"/>
      <ItemData ItemOID="IT.LB.LBCAT" Value="CHEMISTRY"/>
      <ItemData ItemOID="IT.LB.LBORRES" Value="4.2"/>
      <ItemData ItemOID="IT.LB.LBORRESU" Value="g/dL"/>
      <ItemData ItemOID="IT.LB.LBORNRLO" Value="3.5"/>
      <ItemData ItemOID="IT.LB.LBORNRHI" Value="4.6"/>
      <ItemData ItemOID="IT.LB.LBSTRESC" Value="42"/>
      <ItemData ItemOID="IT.LB.LBSTRESN" Value="42"/>
      <ItemData ItemOID="IT.LB.LBSTRESU" Value="g/L"/>
      <ItemData ItemOID="IT.LB.LBSTNRLO" Value="35"/>
      <ItemData ItemOID="IT.LB.LBSTNRHI" Value="46"/>
      <ItemData ItemOID="IT.LB.LBNRIND" Value="NORMAL"/>
      <ItemData ItemOID="IT.LB.LBLOBXFL" Value="Y"/>
      <ItemData ItemOID="IT.LB.VISITNUM" Value="1"/>
      <ItemData ItemOID="IT.LB.VISIT" Value="SCREENING 1"/>
      <ItemData ItemOID="IT.LB.EPOCH" Value="SCREENING"/>
      <ItemData ItemOID="IT.LB.LBDTC" Value="2012-10-30T14:26"/>
      <ItemData ItemOID="IT.LB.LBDY" Value="-16"/>
    </ItemGroupData>
    <ItemGroupData ItemGroupOID="IG.LB" data:ItemGroupDataSeq="107">
      <ItemData ItemOID="IT.LB.STUDYID" Value="CDISCPILOT01"/>
      <ItemData ItemOID="IT.LB.DOMAIN" Value="LB"/>
      <ItemData ItemOID="IT.LB.USUBJID" Value="CDISC002"/>
      <ItemData ItemOID="IT.LB.LBSEQ" Value="2"/>
      <ItemData ItemOID="IT.LB.LBTESTCD" Value="ALP"/>
      <ItemData ItemOID="IT.LB.LBTEST" Value="Alkaline Phosphatase"/>
      <ItemData ItemOID="IT.LB.LBCAT" Value="CHEMISTRY"/>
      <ItemData ItemOID="IT.LB.LBORRES" Value="106"/>
      <ItemData ItemOID="IT.LB.LBORRESU" Value="U/L"/>
      <ItemData ItemOID="IT.LB.LBORNRLO" Value="35"/>
      <ItemData ItemOID="IT.LB.LBORNRHI" Value="115"/>
      <ItemData ItemOID="IT.LB.LBSTRESC" Value="106"/>
      <ItemData ItemOID="IT.LB.LBSTRESN" Value="106"/>
      <ItemData ItemOID="IT.LB.LBSTRESU" Value="U/L"/>
      <ItemData ItemOID="IT.LB.LBSTNRLO" Value="35"/>
      <ItemData ItemOID="IT.LB.LBSTNRHI" Value="115"/>
      <ItemData ItemOID="IT.LB.LBNRIND" Value="NORMAL"/>
      <ItemData ItemOID="IT.LB.LBLOBXFL" Value="Y"/>
      <ItemData ItemOID="IT.LB.VISITNUM" Value="1"/>
      <ItemData ItemOID="IT.LB.VISIT" Value="SCREENING 1"/>
      <ItemData ItemOID="IT.LB.EPOCH" Value="SCREENING"/>
      <ItemData ItemOID="IT.LB.LBDTC" Value="2012-10-30T14:26"/>
      <ItemData ItemOID="IT.LB.LBDY" Value="-16"/>
    </ItemGroupData>
    <ItemGroupData ItemGroupOID="IG.LB" data:ItemGroupDataSeq="108">
      <ItemData ItemOID="IT.LB.STUDYID" Value="CDISCPILOT01"/>
      <ItemData ItemOID="IT.LB.DOMAIN" Value="LB"/>
      <ItemData ItemOID="IT.LB.USUBJID" Value="CDISC002"/>
      <ItemData ItemOID="IT.LB.LBSEQ" Value="3"/>
      <ItemData ItemOID="IT.LB.LBTESTCD" Value="ALT"/>
      <ItemData ItemOID="IT.LB.LBTEST" Value="Alanine Aminotransferase"/>
      <ItemData ItemOID="IT.LB.LBCAT" Value="CHEMISTRY"/>
      <ItemData ItemOID="IT.LB.LBORRES" Value="19"/>
      <ItemData ItemOID="IT.LB.LBORRESU" Value="U/L"/>
      <ItemData ItemOID="IT.LB.LBORNRLO" Value="6"/>
      <ItemData ItemOID="IT.LB.LBORNRHI" Value="32"/>
      <ItemData ItemOID="IT.LB.LBSTRESC" Value="19"/>
      <ItemData ItemOID="IT.LB.LBSTRESN" Value="19"/>
      <ItemData ItemOID="IT.LB.LBSTRESU" Value="U/L"/>
      <ItemData ItemOID="IT.LB.LBSTNRLO" Value="6"/>
      <ItemData ItemOID="IT.LB.LBSTNRHI" Value="32"/>
      <ItemData ItemOID="IT.LB.LBNRIND" Value="NORMAL"/>
      <ItemData ItemOID="IT.LB.LBLOBXFL" Value="Y"/>
      <ItemData ItemOID="IT.LB.VISITNUM" Value="1"/>
      <ItemData ItemOID="IT.LB.VISIT" Value="SCREENING 1"/>
      <ItemData ItemOID="IT.LB.EPOCH" Value="SCREENING"/>
      <ItemData ItemOID="IT.LB.LBDTC" Value="2012-10-30T14:26"/>
      <ItemData ItemOID="IT.LB.LBDY" Value="-16"/>
    </ItemGroupData>
    <ItemGroupData ItemGroupOID="IG.LB" data:ItemGroupDataSeq="109">
      <ItemData ItemOID="IT.LB.STUDYID" Value="CDISCPILOT01"/>
      <ItemData ItemOID="IT.LB.DOMAIN" Value="LB"/>
      <ItemData ItemOID="IT.LB.USUBJID" Value="CDISC002"/>
      <ItemData ItemOID="IT.LB.LBSEQ" Value="4"/>
      <ItemData ItemOID="IT.LB.LBTESTCD" Value="AST"/>
      <ItemData ItemOID="IT.LB.LBTEST" Value="Aspartate Aminotransferase"/>
      <ItemData ItemOID="IT.LB.LBCAT" Value="CHEMISTRY"/>
      <ItemData ItemOID="IT.LB.LBORRES" Value="20"/>
      <ItemData ItemOID="IT.LB.LBORRESU" Value="U/L"/>
      <ItemData ItemOID="IT.LB.LBORNRLO" Value="9"/>
      <ItemData ItemOID="IT.LB.LBORNRHI" Value="34"/>
      <ItemData ItemOID="IT.LB.LBSTRESC" Value="20"/>
      <ItemData ItemOID="IT.LB.LBSTRESN" Value="20"/>
      <ItemData ItemOID="IT.LB.LBSTRESU" Value="U/L"/>
      <ItemData ItemOID="IT.LB.LBSTNRLO" Value="9"/>
      <ItemData ItemOID="IT.LB.LBSTNRHI" Value="34"/>
      <ItemData ItemOID="IT.LB.LBNRIND" Value="NORMAL"/>
      <ItemData ItemOID="IT.LB.LBLOBXFL" Value="Y"/>
      <ItemData ItemOID="IT.LB.VISITNUM" Value="1"/>
      <ItemData ItemOID="IT.LB.VISIT" Value="SCREENING 1"/>
      <ItemData ItemOID="IT.LB.EPOCH" Value="SCREENING"/>
      <ItemData ItemOID="IT.LB.LBDTC" Value="2012-10-30T14:26"/>
      <ItemData ItemOID="IT.LB.LBDY" Value="-16"/>
    </ItemGroupData>
    <ItemGroupData ItemGroupOID="IG.LB" data:ItemGroupDataSeq="110">
      <ItemData ItemOID="IT.LB.STUDYID" Value="CDISCPILOT01"/>
      <ItemData ItemOID="IT.LB.DOMAIN" Value="LB"/>
      <ItemData ItemOID="IT.LB.USUBJID" Value="CDISC002"/>
      <ItemData ItemOID="IT.LB.LBSEQ" Value="6"/>
      <ItemData ItemOID="IT.LB.LBTESTCD" Value="BILI"/>
      <ItemData ItemOID="IT.LB.LBTEST" Value="Bilirubin"/>
      <ItemData ItemOID="IT.LB.LBCAT" Value="CHEMISTRY"/>
      <ItemData ItemOID="IT.LB.LBORRES" Value="1.1"/>
      <ItemData ItemOID="IT.LB.LBORRESU" Value="mg/dL"/>
      <ItemData ItemOID="IT.LB.LBORNRLO" Value="0.2"/>
      <ItemData ItemOID="IT.LB.LBORNRHI" Value="1.2"/>
      <ItemData ItemOID="IT.LB.LBSTRESC" Value="18.81"/>
      <ItemData ItemOID="IT.LB.LBSTRESN" Value="18.81"/>
      <ItemData ItemOID="IT.LB.LBSTRESU" Value="umol/L"/>
      <ItemData ItemOID="IT.LB.LBSTNRLO" Value="3"/>
      <ItemData ItemOID="IT.LB.LBSTNRHI" Value="21"/>
      <ItemData ItemOID="IT.LB.LBNRIND" Value="NORMAL"/>
      <ItemData ItemOID="IT.LB.LBLOBXFL" Value="Y"/>
      <ItemData ItemOID="IT.LB.VISITNUM" Value="1"/>
      <ItemData ItemOID="IT.LB.VISIT" Value="SCREENING 1"/>
      <ItemData ItemOID="IT.LB.EPOCH" Value="SCREENING"/>
      <ItemData ItemOID="IT.LB.LBDTC" Value="2012-10-30T14:26"/>
      <ItemData ItemOID="IT.LB.LBDY" Value="-16"/>
    </ItemGroupData>
    <ItemGroupData ItemGroupOID="IG.LB" data:ItemGroupDataSeq="111">
      <ItemData ItemOID="IT.LB.STUDYID" Value="CDISCPILOT01"/>
      <ItemData ItemOID="IT.LB.DOMAIN" Value="LB"/>
      <ItemData ItemOID="IT.LB.USUBJID" Value="CDISC002"/>
      <ItemData ItemOID="IT.LB.LBSEQ" Value="7"/>
      <ItemData ItemOID="IT.LB.LBTESTCD" Value="UREAN"/>
      <ItemData ItemOID="IT.LB.LBTEST" Value="Urea Nitrogen"/>
      <ItemData ItemOID="IT.LB.LBCAT" Value="CHEMISTRY"/>
      <ItemData ItemOID="IT.LB.LBORRES" Value="18"/>
      <ItemData ItemOID="IT.LB.LBORRESU" Value="mg/dL"/>
      <ItemData ItemOID="IT.LB.LBORNRLO" Value="4"/>
      <ItemData ItemOID="IT.LB.LBORNRHI" Value="24"/>
      <ItemData ItemOID="IT.LB.LBSTRESC" Value="6.426"/>
      <ItemData ItemOID="IT.LB.LBSTRESN" Value="6.426"/>
      <ItemData ItemOID="IT.LB.LBSTRESU" Value="mmol/L"/>
      <ItemData ItemOID="IT.LB.LBSTNRLO" Value="1.4"/>
      <ItemData ItemOID="IT.LB.LBSTNRHI" Value="8.6"/>
      <ItemData ItemOID="IT.LB.LBNRIND" Value="NORMAL"/>
      <ItemData ItemOID="IT.LB.LBLOBXFL" Value="Y"/>
      <ItemData ItemOID="IT.LB.VISITNUM" Value="1"/>
      <ItemData ItemOID="IT.LB.VISIT" Value="SCREENING 1"/>
      <ItemData ItemOID="IT.LB.EPOCH" Value="SCREENING"/>
      <ItemData ItemOID="IT.LB.LBDTC" Value="2012-10-30T14:26"/>
      <ItemData ItemOID="IT.LB.LBDY" Value="-16"/>
    </ItemGroupData>
    <ItemGroupData ItemGroupOID="IG.LB" data:ItemGroupDataSeq="112">
      <ItemData ItemOID="IT.LB.STUDYID" Value="CDISCPILOT01"/>
      <ItemData ItemOID="IT.LB.DOMAIN" Value="LB"/>
      <ItemData ItemOID="IT.LB.USUBJID" Value="CDISC002"/>
      <ItemData ItemOID="IT.LB.LBSEQ" Value="8"/>
      <ItemData ItemOID="IT.LB.LBTESTCD" Value="CA"/>
      <ItemData ItemOID="IT.LB.LBTEST" Value="Calcium"/>
      <ItemData ItemOID="IT.LB.LBCAT" Value="CHEMISTRY"/>
      <ItemData ItemOID="IT.LB.LBORRES" Value="9.3"/>
      <ItemData ItemOID="IT.LB.LBORRESU" Value="mg/dL"/>
      <ItemData ItemOID="IT.LB.LBORNRLO" Value="8.4"/>
      <ItemData ItemOID="IT.LB.LBORNRHI" Value="10.3"/>
      <ItemData ItemOID="IT.LB.LBSTRESC" Value="2.32035"/>
      <ItemData ItemOID="IT.LB.LBSTRESN" Value="2.32035"/>
      <ItemData ItemOID="IT.LB.LBSTRESU" Value="mmol/L"/>
      <ItemData ItemOID="IT.LB.LBSTNRLO" Value="2.1"/>
      <ItemData ItemOID="IT.LB.LBSTNRHI" Value="2.57"/>
      <ItemData ItemOID="IT.LB.LBNRIND" Value="NORMAL"/>
      <ItemData ItemOID="IT.LB.LBLOBXFL" Value="Y"/>
      <ItemData ItemOID="IT.LB.VISITNUM" Value="1"/>
      <ItemData ItemOID="IT.LB.VISIT" Value="SCREENING 1"/>
      <ItemData ItemOID="IT.LB.EPOCH" Value="SCREENING"/>
      <ItemData ItemOID="IT.LB.LBDTC" Value="2012-10-30T14:26"/>
      <ItemData ItemOID="IT.LB.LBDY" Value="-16"/>
    </ItemGroupData>
    <ItemGroupData ItemGroupOID="IG.LB" data:ItemGroupDataSeq="113">
      <ItemData ItemOID="IT.LB.STUDYID" Value="CDISCPILOT01"/>
      <ItemData ItemOID="IT.LB.DOMAIN" Value="LB"/>
      <ItemData ItemOID="IT.LB.USUBJID" Value="CDISC002"/>
      <ItemData ItemOID="IT.LB.LBSEQ" Value="9"/>
      <ItemData ItemOID="IT.LB.LBTESTCD" Value="CHOL"/>
      <ItemData ItemOID="IT.LB.LBTEST" Value="Cholesterol"/>
      <ItemData ItemOID="IT.LB.LBCAT" Value="CHEMISTRY"/>
      <ItemData ItemOID="IT.LB.LBORRES" Value="191"/>
      <ItemData ItemOID="IT.LB.LBORRESU" Value="mg/dL"/>
      <ItemData ItemOID="IT.LB.LBORNRLO" Value="156"/>
      <ItemData ItemOID="IT.LB.LBORNRHI" Value="300"/>
      <ItemData ItemOID="IT.LB.LBSTRESC" Value="4.93926"/>
      <ItemData ItemOID="IT.LB.LBSTRESN" Value="4.93926"/>
      <ItemData ItemOID="IT.LB.LBSTRESU" Value="mmol/L"/>
      <ItemData ItemOID="IT.LB.LBSTNRLO" Value="4.03"/>
      <ItemData ItemOID="IT.LB.LBSTNRHI" Value="7.76"/>
      <ItemData ItemOID="IT.LB.LBNRIND" Value="NORMAL"/>
      <ItemData ItemOID="IT.LB.LBLOBXFL" Value="Y"/>
      <ItemData ItemOID="IT.LB.VISITNUM" Value="1"/>
      <ItemData ItemOID="IT.LB.VISIT" Value="SCREENING 1"/>
      <ItemData ItemOID="IT.LB.EPOCH" Value="SCREENING"/>
      <ItemData ItemOID="IT.LB.LBDTC" Value="2012-10-30T14:26"/>
      <ItemData ItemOID="IT.LB.LBDY" Value="-16"/>
    </ItemGroupData>
    <ItemGroupData ItemGroupOID="IG.LB" data:ItemGroupDataSeq="114">
      <ItemData ItemOID="IT.LB.STUDYID" Value="CDISCPILOT01"/>
      <ItemData ItemOID="IT.LB.DOMAIN" Value="LB"/>
      <ItemData ItemOID="IT.LB.USUBJID" Value="CDISC002"/>
      <ItemData ItemOID="IT.LB.LBSEQ" Value="10"/>
      <ItemData ItemOID="IT.LB.LBTESTCD" Value="CK"/>
      <ItemData ItemOID="IT.LB.LBTEST" Value="Creatine Kinase"/>
      <ItemData ItemOID="IT.LB.LBCAT" Value="CHEMISTRY"/>
      <ItemData ItemOID="IT.LB.LBORRES" Value="91"/>
      <ItemData ItemOID="IT.LB.LBORRESU" Value="U/L"/>
      <ItemData ItemOID="IT.LB.LBORNRLO" Value="21"/>
      <ItemData ItemOID="IT.LB.LBORNRHI" Value="169"/>
      <ItemData ItemOID="IT.LB.LBSTRESC" Value="91"/>
      <ItemData ItemOID="IT.LB.LBSTRESN" Value="91"/>
      <ItemData ItemOID="IT.LB.LBSTRESU" Value="U/L"/>
      <ItemData ItemOID="IT.LB.LBSTNRLO" Value="21"/>
      <ItemData ItemOID="IT.LB.LBSTNRHI" Value="169"/>
      <ItemData ItemOID="IT.LB.LBNRIND" Value="NORMAL"/>
      <ItemData ItemOID="IT.LB.LBLOBXFL" Value="Y"/>
      <ItemData ItemOID="IT.LB.VISITNUM" Value="1"/>
      <ItemData ItemOID="IT.LB.VISIT" Value="SCREENING 1"/>
      <ItemData ItemOID="IT.LB.EPOCH" Value="SCREENING"/>
      <ItemData ItemOID="IT.LB.LBDTC" Value="2012-10-30T14:26"/>
      <ItemData ItemOID="IT.LB.LBDY" Value="-16"/>
    </ItemGroupData>
    <ItemGroupData ItemGroupOID="IG.LB" data:ItemGroupDataSeq="115">
      <ItemData ItemOID="IT.LB.STUDYID" Value="CDISCPILOT01"/>
      <ItemData ItemOID="IT.LB.DOMAIN" Value="LB"/>
      <ItemData ItemOID="IT.LB.USUBJID" Value="CDISC002"/>
      <ItemData ItemOID="IT.LB.LBSEQ" Value="11"/>
      <ItemData ItemOID="IT.LB.LBTESTCD" Value="CL"/>
      <ItemData ItemOID="IT.LB.LBTEST" Value="Chloride"/>
      <ItemData ItemOID="IT.LB.LBCAT" Value="CHEMISTRY"/>
      <ItemData ItemOID="IT.LB.LBORRES" Value="100"/>
      <ItemData ItemOID="IT.LB.LBORRESU" Value="mEq/L"/>
      <ItemData ItemOID="IT.LB.LBORNRLO" Value="94"/>
      <ItemData ItemOID="IT.LB.LBORNRHI" Value="112"/>
      <ItemData ItemOID="IT.LB.LBSTRESC" Value="100"/>
      <ItemData ItemOID="IT.LB.LBSTRESN" Value="100"/>
      <ItemData ItemOID="IT.LB.LBSTRESU" Value="mmol/L"/>
      <ItemData ItemOID="IT.LB.LBSTNRLO" Value="94"/>
      <ItemData ItemOID="IT.LB.LBSTNRHI" Value="112"/>
      <ItemData ItemOID="IT.LB.LBNRIND" Value="NORMAL"/>
      <ItemData ItemOID="IT.LB.LBLOBXFL" Value="Y"/>
      <ItemData ItemOID="IT.LB.VISITNUM" Value="1"/>
      <ItemData ItemOID="IT.LB.VISIT" Value="SCREENING 1"/>
      <ItemData ItemOID="IT.LB.EPOCH" Value="SCREENING"/>
      <ItemData ItemOID="IT.LB.LBDTC" Value="2012-10-30T14:26"/>
      <ItemData ItemOID="IT.LB.LBDY" Value="-16"/>
    </ItemGroupData>
    <ItemGroupData ItemGroupOID="IG.LB" data:ItemGroupDataSeq="116">
      <ItemData ItemOID="IT.LB.STUDYID" Value="CDISCPILOT01"/>
      <ItemData ItemOID="IT.LB.DOMAIN" Value="LB"/>
      <ItemData ItemOID="IT.LB.USUBJID" Value="CDISC002"/>
      <ItemData ItemOID="IT.LB.LBSEQ" Value="13"/>
      <ItemData ItemOID="IT.LB.LBTESTCD" Value="CREAT"/>
      <ItemData ItemOID="IT.LB.LBTEST" Value="Creatinine"/>
      <ItemData ItemOID="IT.LB.LBCAT" Value="CHEMISTRY"/>
      <ItemData ItemOID="IT.LB.LBORRES" Value="1.1"/>
      <ItemData ItemOID="IT.LB.LBORRESU" Value="mg/dL"/>
      <ItemData ItemOID="IT.LB.LBORNRLO" Value="0.7"/>
      <ItemData ItemOID="IT.LB.LBORNRHI" Value="1.4"/>
      <ItemData ItemOID="IT.LB.LBSTRESC" Value="97.24"/>
      <ItemData ItemOID="IT.LB.LBSTRESN" Value="97.24"/>
      <ItemData ItemOID="IT.LB.LBSTRESU" Value="umol/L"/>
      <ItemData ItemOID="IT.LB.LBSTNRLO" Value="62"/>
      <ItemData ItemOID="IT.LB.LBSTNRHI" Value="124"/>
      <ItemData ItemOID="IT.LB.LBNRIND" Value="NORMAL"/>
      <ItemData ItemOID="IT.LB.LBLOBXFL" Value="Y"/>
      <ItemData ItemOID="IT.LB.VISITNUM" Value="1"/>
      <ItemData ItemOID="IT.LB.VISIT" Value="SCREENING 1"/>
      <ItemData ItemOID="IT.LB.EPOCH" Value="SCREENING"/>
      <ItemData ItemOID="IT.LB.LBDTC" Value="2012-10-30T14:26"/>
      <ItemData ItemOID="IT.LB.LBDY" Value="-16"/>
    </ItemGroupData>
    <ItemGroupData ItemGroupOID="IG.LB" data:ItemGroupDataSeq="117">
      <ItemData ItemOID="IT.LB.STUDYID" Value="CDISCPILOT01"/>
      <ItemData ItemOID="IT.LB.DOMAIN" Value="LB"/>
      <ItemData ItemOID="IT.LB.USUBJID" Value="CDISC002"/>
      <ItemData ItemOID="IT.LB.LBSEQ" Value="15"/>
      <ItemData ItemOID="IT.LB.LBTESTCD" Value="GGT"/>
      <ItemData ItemOID="IT.LB.LBTEST" Value="Gamma Glutamyl Transferase"/>
      <ItemData ItemOID="IT.LB.LBCAT" Value="CHEMISTRY"/>
      <ItemData ItemOID="IT.LB.LBORRES" Value="22"/>
      <ItemData ItemOID="IT.LB.LBORRESU" Value="U/L"/>
      <ItemData ItemOID="IT.LB.LBORNRLO" Value="5"/>
      <ItemData ItemOID="IT.LB.LBORNRHI" Value="50"/>
      <ItemData ItemOID="IT.LB.LBSTRESC" Value="22"/>
      <ItemData ItemOID="IT.LB.LBSTRESN" Value="22"/>
      <ItemData ItemOID="IT.LB.LBSTRESU" Value="U/L"/>
      <ItemData ItemOID="IT.LB.LBSTNRLO" Value="5"/>
      <ItemData ItemOID="IT.LB.LBSTNRHI" Value="50"/>
      <ItemData ItemOID="IT.LB.LBNRIND" Value="NORMAL"/>
      <ItemData ItemOID="IT.LB.LBLOBXFL" Value="Y"/>
      <ItemData ItemOID="IT.LB.VISITNUM" Value="1"/>
      <ItemData ItemOID="IT.LB.VISIT" Value="SCREENING 1"/>
      <ItemData ItemOID="IT.LB.EPOCH" Value="SCREENING"/>
      <ItemData ItemOID="IT.LB.LBDTC" Value="2012-10-30T14:26"/>
      <ItemData ItemOID="IT.LB.LBDY" Value="-16"/>
    </ItemGroupData>
    <ItemGroupData ItemGroupOID="IG.LB" data:ItemGroupDataSeq="118">
      <ItemData ItemOID="IT.LB.STUDYID" Value="CDISCPILOT01"/>
      <ItemData ItemOID="IT.LB.DOMAIN" Value="LB"/>
      <ItemData ItemOID="IT.LB.USUBJID" Value="CDISC002"/>
      <ItemData ItemOID="IT.LB.LBSEQ" Value="16"/>
      <ItemData ItemOID="IT.LB.LBTESTCD" Value="GLUC"/>
      <ItemData ItemOID="IT.LB.LBTEST" Value="Glucose"/>
      <ItemData ItemOID="IT.LB.LBCAT" Value="CHEMISTRY"/>
      <ItemData ItemOID="IT.LB.LBORRES" Value="91"/>
      <ItemData ItemOID="IT.LB.LBORRESU" Value="mg/dL"/>
      <ItemData ItemOID="IT.LB.LBORNRLO" Value="50"/>
      <ItemData ItemOID="IT.LB.LBORNRHI" Value="250"/>
      <ItemData ItemOID="IT.LB.LBSTRESC" Value="5.05141"/>
      <ItemData ItemOID="IT.LB.LBSTRESN" Value="5.05141"/>
      <ItemData ItemOID="IT.LB.LBSTRESU" Value="mmol/L"/>
      <ItemData ItemOID="IT.LB.LBSTNRLO" Value="2.8"/>
      <ItemData ItemOID="IT.LB.LBSTNRHI" Value="13.9"/>
      <ItemData ItemOID="IT.LB.LBNRIND" Value="NORMAL"/>
      <ItemData ItemOID="IT.LB.LBLOBXFL" Value="Y"/>
      <ItemData ItemOID="IT.LB.VISITNUM" Value="1"/>
      <ItemData ItemOID="IT.LB.VISIT" Value="SCREENING 1"/>
      <ItemData ItemOID="IT.LB.EPOCH" Value="SCREENING"/>
      <ItemData ItemOID="IT.LB.LBDTC" Value="2012-10-30T14:26"/>
      <ItemData ItemOID="IT.LB.LBDY" Value="-16"/>
    </ItemGroupData>
    <ItemGroupData ItemGroupOID="IG.LB" data:ItemGroupDataSeq="119">
      <ItemData ItemOID="IT.LB.STUDYID" Value="CDISCPILOT01"/>
      <ItemData ItemOID="IT.LB.DOMAIN" Value="LB"/>
      <ItemData ItemOID="IT.LB.USUBJID" Value="CDISC002"/>
      <ItemData ItemOID="IT.LB.LBSEQ" Value="19"/>
      <ItemData ItemOID="IT.LB.LBTESTCD" Value="K"/>
      <ItemData ItemOID="IT.LB.LBTEST" Value="Potassium"/>
      <ItemData ItemOID="IT.LB.LBCAT" Value="CHEMISTRY"/>
      <ItemData ItemOID="IT.LB.LBORRES" Value="3.9"/>
      <ItemData ItemOID="IT.LB.LBORRESU" Value="mEq/L"/>
      <ItemData ItemOID="IT.LB.LBORNRLO" Value="3.4"/>
      <ItemData ItemOID="IT.LB.LBORNRHI" Value="5.4"/>
      <ItemData ItemOID="IT.LB.LBSTRESC" Value="3.9"/>
      <ItemData ItemOID="IT.LB.LBSTRESN" Value="3.9"/>
      <ItemData ItemOID="IT.LB.LBSTRESU" Value="mmol/L"/>
      <ItemData ItemOID="IT.LB.LBSTNRLO" Value="3.4"/>
      <ItemData ItemOID="IT.LB.LBSTNRHI" Value="5.4"/>
      <ItemData ItemOID="IT.LB.LBNRIND" Value="NORMAL"/>
      <ItemData ItemOID="IT.LB.LBLOBXFL" Value="Y"/>
      <ItemData ItemOID="IT.LB.VISITNUM" Value="1"/>
      <ItemData ItemOID="IT.LB.VISIT" Value="SCREENING 1"/>
      <ItemData ItemOID="IT.LB.EPOCH" Value="SCREENING"/>
      <ItemData ItemOID="IT.LB.LBDTC" Value="2012-10-30T14:26"/>
      <ItemData ItemOID="IT.LB.LBDY" Value="-16"/>
    </ItemGroupData>
    <ItemGroupData ItemGroupOID="IG.LB" data:ItemGroupDataSeq="120">
      <ItemData ItemOID="IT.LB.STUDYID" Value="CDISCPILOT01"/>
      <ItemData ItemOID="IT.LB.DOMAIN" Value="LB"/>
      <ItemData ItemOID="IT.LB.USUBJID" Value="CDISC002"/>
      <ItemData ItemOID="IT.LB.LBSEQ" Value="26"/>
      <ItemData ItemOID="IT.LB.LBTESTCD" Value="SODIUM"/>
      <ItemData ItemOID="IT.LB.LBTEST" Value="Sodium"/>
      <ItemData ItemOID="IT.LB.LBCAT" Value="CHEMISTRY"/>
      <ItemData ItemOID="IT.LB.LBORRES" Value="133"/>
      <ItemData ItemOID="IT.LB.LBORRESU" Value="mEq/L"/>
      <ItemData ItemOID="IT.LB.LBORNRLO" Value="135"/>
      <ItemData ItemOID="IT.LB.LBORNRHI" Value="145"/>
      <ItemData ItemOID="IT.LB.LBSTRESC" Value="133"/>
      <ItemData ItemOID="IT.LB.LBSTRESN" Value="133"/>
      <ItemData ItemOID="IT.LB.LBSTRESU" Value="mmol/L"/>
      <ItemData ItemOID="IT.LB.LBSTNRLO" Value="135"/>
      <ItemData ItemOID="IT.LB.LBSTNRHI" Value="145"/>
      <ItemData ItemOID="IT.LB.LBNRIND" Value="LOW"/>
      <ItemData ItemOID="IT.LB.LBLOBXFL" Value="Y"/>
      <ItemData ItemOID="IT.LB.VISITNUM" Value="1"/>
      <ItemData ItemOID="IT.LB.VISIT" Value="SCREENING 1"/>
      <ItemData ItemOID="IT.LB.EPOCH" Value="SCREENING"/>
      <ItemData ItemOID="IT.LB.LBDTC" Value="2012-10-30T14:26"/>
      <ItemData ItemOID="IT.LB.LBDY" Value="-16"/>
    </ItemGroupData>
    <ItemGroupData ItemGroupOID="IG.LB" data:ItemGroupDataSeq="121">
      <ItemData ItemOID="IT.LB.STUDYID" Value="CDISCPILOT01"/>
      <ItemData ItemOID="IT.LB.DOMAIN" Value="LB"/>
      <ItemData ItemOID="IT.LB.USUBJID" Value="CDISC002"/>
      <ItemData ItemOID="IT.LB.LBSEQ" Value="28"/>
      <ItemData ItemOID="IT.LB.LBTESTCD" Value="PHOS"/>
      <ItemData ItemOID="IT.LB.LBTEST" Value="Phosphate"/>
      <ItemData ItemOID="IT.LB.LBCAT" Value="CHEMISTRY"/>
      <ItemData ItemOID="IT.LB.LBORRES" Value="3.7"/>
      <ItemData ItemOID="IT.LB.LBORRESU" Value="mg/dL"/>
      <ItemData ItemOID="IT.LB.LBORNRLO" Value="2.2"/>
      <ItemData ItemOID="IT.LB.LBORNRHI" Value="5.1"/>
      <ItemData ItemOID="IT.LB.LBSTRESC" Value="1.19473"/>
      <ItemData ItemOID="IT.LB.LBSTRESN" Value="1.19473"/>
      <ItemData ItemOID="IT.LB.LBSTRESU" Value="mmol/L"/>
      <ItemData ItemOID="IT.LB.LBSTNRLO" Value="0.71"/>
      <ItemData ItemOID="IT.LB.LBSTNRHI" Value="1.65"/>
      <ItemData ItemOID="IT.LB.LBNRIND" Value="NORMAL"/>
      <ItemData ItemOID="IT.LB.LBLOBXFL" Value="Y"/>
      <ItemData ItemOID="IT.LB.VISITNUM" Value="1"/>
      <ItemData ItemOID="IT.LB.VISIT" Value="SCREENING 1"/>
      <ItemData ItemOID="IT.LB.EPOCH" Value="SCREENING"/>
      <ItemData ItemOID="IT.LB.LBDTC" Value="2012-10-30T14:26"/>
      <ItemData ItemOID="IT.LB.LBDY" Value="-16"/>
    </ItemGroupData>
    <ItemGroupData ItemGroupOID="IG.LB" data:ItemGroupDataSeq="122">
      <ItemData ItemOID="IT.LB.STUDYID" Value="CDISCPILOT01"/>
      <ItemData ItemOID="IT.LB.DOMAIN" Value="LB"/>
      <ItemData ItemOID="IT.LB.USUBJID" Value="CDISC002"/>
      <ItemData ItemOID="IT.LB.LBSEQ" Value="30"/>
      <ItemData ItemOID="IT.LB.LBTESTCD" Value="PROT"/>
      <ItemData ItemOID="IT.LB.LBTEST" Value="Protein"/>
      <ItemData ItemOID="IT.LB.LBCAT" Value="CHEMISTRY"/>
      <ItemData ItemOID="IT.LB.LBORRES" Value="7.6"/>
      <ItemData ItemOID="IT.LB.LBORRESU" Value="g/dL"/>
      <ItemData ItemOID="IT.LB.LBORNRLO" Value="6"/>
      <ItemData ItemOID="IT.LB.LBORNRHI" Value="8"/>
      <ItemData ItemOID="IT.LB.LBSTRESC" Value="76"/>
      <ItemData ItemOID="IT.LB.LBSTRESN" Value="76"/>
      <ItemData ItemOID="IT.LB.LBSTRESU" Value="g/L"/>
      <ItemData ItemOID="IT.LB.LBSTNRLO" Value="60"/>
      <ItemData ItemOID="IT.LB.LBSTNRHI" Value="80"/>
      <ItemData ItemOID="IT.LB.LBNRIND" Value="NORMAL"/>
      <ItemData ItemOID="IT.LB.LBLOBXFL" Value="Y"/>
      <ItemData ItemOID="IT.LB.VISITNUM" Value="1"/>
      <ItemData ItemOID="IT.LB.VISIT" Value="SCREENING 1"/>
      <ItemData ItemOID="IT.LB.EPOCH" Value="SCREENING"/>
      <ItemData ItemOID="IT.LB.LBDTC" Value="2012-10-30T14:26"/>
      <ItemData ItemOID="IT.LB.LBDY" Value="-16"/>
    </ItemGroupData>
    <ItemGroupData ItemGroupOID="IG.LB" data:ItemGroupDataSeq="123">
      <ItemData ItemOID="IT.LB.STUDYID" Value="CDISCPILOT01"/>
      <ItemData ItemOID="IT.LB.DOMAIN" Value="LB"/>
      <ItemData ItemOID="IT.LB.USUBJID" Value="CDISC002"/>
      <ItemData ItemOID="IT.LB.LBSEQ" Value="34"/>
      <ItemData ItemOID="IT.LB.LBTESTCD" Value="URATE"/>
      <ItemData ItemOID="IT.LB.LBTEST" Value="Urate"/>
      <ItemData ItemOID="IT.LB.LBCAT" Value="CHEMISTRY"/>
      <ItemData ItemOID="IT.LB.LBORRES" Value="4.6"/>
      <ItemData ItemOID="IT.LB.LBORRESU" Value="mg/dL"/>
      <ItemData ItemOID="IT.LB.LBORNRLO" Value="2.5"/>
      <ItemData ItemOID="IT.LB.LBORNRHI" Value="7.5"/>
      <ItemData ItemOID="IT.LB.LBSTRESC" Value="273.608"/>
      <ItemData ItemOID="IT.LB.LBSTRESN" Value="273.608"/>
      <ItemData ItemOID="IT.LB.LBSTRESU" Value="umol/L"/>
      <ItemData ItemOID="IT.LB.LBSTNRLO" Value="149"/>
      <ItemData ItemOID="IT.LB.LBSTNRHI" Value="446"/>
      <ItemData ItemOID="IT.LB.LBNRIND" Value="NORMAL"/>
      <ItemData ItemOID="IT.LB.LBLOBXFL" Value="Y"/>
      <ItemData ItemOID="IT.LB.VISITNUM" Value="1"/>
      <ItemData ItemOID="IT.LB.VISIT" Value="SCREENING 1"/>
      <ItemData ItemOID="IT.LB.EPOCH" Value="SCREENING"/>
      <ItemData ItemOID="IT.LB.LBDTC" Value="2012-10-30T14:26"/>
      <ItemData ItemOID="IT.LB.LBDY" Value="-16"/>
    </ItemGroupData>
    <ItemGroupData ItemGroupOID="IG.LB" data:ItemGroupDataSeq="124">
      <ItemData ItemOID="IT.LB.STUDYID" Value="CDISCPILOT01"/>
      <ItemData ItemOID="IT.LB.DOMAIN" Value="LB"/>
      <ItemData ItemOID="IT.LB.USUBJID" Value="CDISC002"/>
      <ItemData ItemOID="IT.LB.LBSEQ" Value="38"/>
      <ItemData ItemOID="IT.LB.LBTESTCD" Value="ALB"/>
      <ItemData ItemOID="IT.LB.LBTEST" Value="Albumin"/>
      <ItemData ItemOID="IT.LB.LBCAT" Value="CHEMISTRY"/>
      <ItemData ItemOID="IT.LB.LBORRES" Value="3.4"/>
      <ItemData ItemOID="IT.LB.LBORRESU" Value="g/dL"/>
      <ItemData ItemOID="IT.LB.LBORNRLO" Value="3.5"/>
      <ItemData ItemOID="IT.LB.LBORNRHI" Value="4.6"/>
      <ItemData ItemOID="IT.LB.LBSTRESC" Value="34"/>
      <ItemData ItemOID="IT.LB.LBSTRESN" Value="34"/>
      <ItemData ItemOID="IT.LB.LBSTRESU" Value="g/L"/>
      <ItemData ItemOID="IT.LB.LBSTNRLO" Value="35"/>
      <ItemData ItemOID="IT.LB.LBSTNRHI" Value="46"/>
      <ItemData ItemOID="IT.LB.LBNRIND" Value="LOW"/>
      <ItemData ItemOID="IT.LB.VISITNUM" Value="4"/>
      <ItemData ItemOID="IT.LB.VISIT" Value="WEEK 2"/>
      <ItemData ItemOID="IT.LB.EPOCH" Value="TREATMENT"/>
      <ItemData ItemOID="IT.LB.LBDTC" Value="2012-11-28T10:00"/>
      <ItemData ItemOID="IT.LB.LBDY" Value="14"/>
    </ItemGroupData>
    <ItemGroupData ItemGroupOID="IG.LB" data:ItemGroupDataSeq="125">
      <ItemData ItemOID="IT.LB.STUDYID" Value="CDISCPILOT01"/>
      <ItemData ItemOID="IT.LB.DOMAIN" Value="LB"/>
      <ItemData ItemOID="IT.LB.USUBJID" Value="CDISC002"/>
      <ItemData ItemOID="IT.LB.LBSEQ" Value="39"/>
      <ItemData ItemOID="IT.LB.LBTESTCD" Value="ALP"/>
      <ItemData ItemOID="IT.LB.LBTEST" Value="Alkaline Phosphatase"/>
      <ItemData ItemOID="IT.LB.LBCAT" Value="CHEMISTRY"/>
      <ItemData ItemOID="IT.LB.LBORRES" Value="103"/>
      <ItemData ItemOID="IT.LB.LBORRESU" Value="U/L"/>
      <ItemData ItemOID="IT.LB.LBORNRLO" Value="35"/>
      <ItemData ItemOID="IT.LB.LBORNRHI" Value="115"/>
      <ItemData ItemOID="IT.LB.LBSTRESC" Value="103"/>
      <ItemData ItemOID="IT.LB.LBSTRESN" Value="103"/>
      <ItemData ItemOID="IT.LB.LBSTRESU" Value="U/L"/>
      <ItemData ItemOID="IT.LB.LBSTNRLO" Value="35"/>
      <ItemData ItemOID="IT.LB.LBSTNRHI" Value="115"/>
      <ItemData ItemOID="IT.LB.LBNRIND" Value="NORMAL"/>
      <ItemData ItemOID="IT.LB.VISITNUM" Value="4"/>
      <ItemData ItemOID="IT.LB.VISIT" Value="WEEK 2"/>
      <ItemData ItemOID="IT.LB.EPOCH" Value="TREATMENT"/>
      <ItemData ItemOID="IT.LB.LBDTC" Value="2012-11-28T10:00"/>
      <ItemData ItemOID="IT.LB.LBDY" Value="14"/>
    </ItemGroupData>
    <ItemGroupData ItemGroupOID="IG.LB" data:ItemGroupDataSeq="126">
      <ItemData ItemOID="IT.LB.STUDYID" Value="CDISCPILOT01"/>
      <ItemData ItemOID="IT.LB.DOMAIN" Value="LB"/>
      <ItemData ItemOID="IT.LB.USUBJID" Value="CDISC002"/>
      <ItemData ItemOID="IT.LB.LBSEQ" Value="40"/>
      <ItemData ItemOID="IT.LB.LBTESTCD" Value="ALT"/>
      <ItemData ItemOID="IT.LB.LBTEST" Value="Alanine Aminotransferase"/>
      <ItemData ItemOID="IT.LB.LBCAT" Value="CHEMISTRY"/>
      <ItemData ItemOID="IT.LB.LBORRES" Value="19"/>
      <ItemData ItemOID="IT.LB.LBORRESU" Value="U/L"/>
      <ItemData ItemOID="IT.LB.LBORNRLO" Value="6"/>
      <ItemData ItemOID="IT.LB.LBORNRHI" Value="32"/>
      <ItemData ItemOID="IT.LB.LBSTRESC" Value="19"/>
      <ItemData ItemOID="IT.LB.LBSTRESN" Value="19"/>
      <ItemData ItemOID="IT.LB.LBSTRESU" Value="U/L"/>
      <ItemData ItemOID="IT.LB.LBSTNRLO" Value="6"/>
      <ItemData ItemOID="IT.LB.LBSTNRHI" Value="32"/>
      <ItemData ItemOID="IT.LB.LBNRIND" Value="NORMAL"/>
      <ItemData ItemOID="IT.LB.VISITNUM" Value="4"/>
      <ItemData ItemOID="IT.LB.VISIT" Value="WEEK 2"/>
      <ItemData ItemOID="IT.LB.EPOCH" Value="TREATMENT"/>
      <ItemData ItemOID="IT.LB.LBDTC" Value="2012-11-28T10:00"/>
      <ItemData ItemOID="IT.LB.LBDY" Value="14"/>
    </ItemGroupData>
    <ItemGroupData ItemGroupOID="IG.LB" data:ItemGroupDataSeq="127">
      <ItemData ItemOID="IT.LB.STUDYID" Value="CDISCPILOT01"/>
      <ItemData ItemOID="IT.LB.DOMAIN" Value="LB"/>
      <ItemData ItemOID="IT.LB.USUBJID" Value="CDISC002"/>
      <ItemData ItemOID="IT.LB.LBSEQ" Value="41"/>
      <ItemData ItemOID="IT.LB.LBTESTCD" Value="AST"/>
      <ItemData ItemOID="IT.LB.LBTEST" Value="Aspartate Aminotransferase"/>
      <ItemData ItemOID="IT.LB.LBCAT" Value="CHEMISTRY"/>
      <ItemData ItemOID="IT.LB.LBORRES" Value="10"/>
      <ItemData ItemOID="IT.LB.LBORRESU" Value="U/L"/>
      <ItemData ItemOID="IT.LB.LBORNRLO" Value="9"/>
      <ItemData ItemOID="IT.LB.LBORNRHI" Value="34"/>
      <ItemData ItemOID="IT.LB.LBSTRESC" Value="10"/>
      <ItemData ItemOID="IT.LB.LBSTRESN" Value="10"/>
      <ItemData ItemOID="IT.LB.LBSTRESU" Value="U/L"/>
      <ItemData ItemOID="IT.LB.LBSTNRLO" Value="9"/>
      <ItemData ItemOID="IT.LB.LBSTNRHI" Value="34"/>
      <ItemData ItemOID="IT.LB.LBNRIND" Value="NORMAL"/>
      <ItemData ItemOID="IT.LB.VISITNUM" Value="4"/>
      <ItemData ItemOID="IT.LB.VISIT" Value="WEEK 2"/>
      <ItemData ItemOID="IT.LB.EPOCH" Value="TREATMENT"/>
      <ItemData ItemOID="IT.LB.LBDTC" Value="2012-11-28T10:00"/>
      <ItemData ItemOID="IT.LB.LBDY" Value="14"/>
    </ItemGroupData>
    <ItemGroupData ItemGroupOID="IG.LB" data:ItemGroupDataSeq="128">
      <ItemData ItemOID="IT.LB.STUDYID" Value="CDISCPILOT01"/>
      <ItemData ItemOID="IT.LB.DOMAIN" Value="LB"/>
      <ItemData ItemOID="IT.LB.USUBJID" Value="CDISC002"/>
      <ItemData ItemOID="IT.LB.LBSEQ" Value="43"/>
      <ItemData ItemOID="IT.LB.LBTESTCD" Value="BILI"/>
      <ItemData ItemOID="IT.LB.LBTEST" Value="Bilirubin"/>
      <ItemData ItemOID="IT.LB.LBCAT" Value="CHEMISTRY"/>
      <ItemData ItemOID="IT.LB.LBORRES" Value="1.5"/>
      <ItemData ItemOID="IT.LB.LBORRESU" Value="mg/dL"/>
      <ItemData ItemOID="IT.LB.LBORNRLO" Value="0.2"/>
      <ItemData ItemOID="IT.LB.LBORNRHI" Value="1.2"/>
      <ItemData ItemOID="IT.LB.LBSTRESC" Value="25.65"/>
      <ItemData ItemOID="IT.LB.LBSTRESN" Value="25.65"/>
      <ItemData ItemOID="IT.LB.LBSTRESU" Value="umol/L"/>
      <ItemData ItemOID="IT.LB.LBSTNRLO" Value="3"/>
      <ItemData ItemOID="IT.LB.LBSTNRHI" Value="21"/>
      <ItemData ItemOID="IT.LB.LBNRIND" Value="HIGH"/>
      <ItemData ItemOID="IT.LB.VISITNUM" Value="4"/>
      <ItemData ItemOID="IT.LB.VISIT" Value="WEEK 2"/>
      <ItemData ItemOID="IT.LB.EPOCH" Value="TREATMENT"/>
      <ItemData ItemOID="IT.LB.LBDTC" Value="2012-11-28T10:00"/>
      <ItemData ItemOID="IT.LB.LBDY" Value="14"/>
    </ItemGroupData>
    <ItemGroupData ItemGroupOID="IG.LB" data:ItemGroupDataSeq="129">
      <ItemData ItemOID="IT.LB.STUDYID" Value="CDISCPILOT01"/>
      <ItemData ItemOID="IT.LB.DOMAIN" Value="LB"/>
      <ItemData ItemOID="IT.LB.USUBJID" Value="CDISC002"/>
      <ItemData ItemOID="IT.LB.LBSEQ" Value="44"/>
      <ItemData ItemOID="IT.LB.LBTESTCD" Value="UREAN"/>
      <ItemData ItemOID="IT.LB.LBTEST" Value="Urea Nitrogen"/>
      <ItemData ItemOID="IT.LB.LBCAT" Value="CHEMISTRY"/>
      <ItemData ItemOID="IT.LB.LBORRES" Value="27"/>
      <ItemData ItemOID="IT.LB.LBORRESU" Value="mg/dL"/>
      <ItemData ItemOID="IT.LB.LBORNRLO" Value="4"/>
      <ItemData ItemOID="IT.LB.LBORNRHI" Value="24"/>
      <ItemData ItemOID="IT.LB.LBSTRESC" Value="9.639"/>
      <ItemData ItemOID="IT.LB.LBSTRESN" Value="9.639"/>
      <ItemData ItemOID="IT.LB.LBSTRESU" Value="mmol/L"/>
      <ItemData ItemOID="IT.LB.LBSTNRLO" Value="1.4"/>
      <ItemData ItemOID="IT.LB.LBSTNRHI" Value="8.6"/>
      <ItemData ItemOID="IT.LB.LBNRIND" Value="HIGH"/>
      <ItemData ItemOID="IT.LB.VISITNUM" Value="4"/>
      <ItemData ItemOID="IT.LB.VISIT" Value="WEEK 2"/>
      <ItemData ItemOID="IT.LB.EPOCH" Value="TREATMENT"/>
      <ItemData ItemOID="IT.LB.LBDTC" Value="2012-11-28T10:00"/>
      <ItemData ItemOID="IT.LB.LBDY" Value="14"/>
    </ItemGroupData>
    <ItemGroupData ItemGroupOID="IG.LB" data:ItemGroupDataSeq="130">
      <ItemData ItemOID="IT.LB.STUDYID" Value="CDISCPILOT01"/>
      <ItemData ItemOID="IT.LB.DOMAIN" Value="LB"/>
      <ItemData ItemOID="IT.LB.USUBJID" Value="CDISC002"/>
      <ItemData ItemOID="IT.LB.LBSEQ" Value="45"/>
      <ItemData ItemOID="IT.LB.LBTESTCD" Value="CA"/>
      <ItemData ItemOID="IT.LB.LBTEST" Value="Calcium"/>
      <ItemData ItemOID="IT.LB.LBCAT" Value="CHEMISTRY"/>
      <ItemData ItemOID="IT.LB.LBORRES" Value="8.6"/>
      <ItemData ItemOID="IT.LB.LBORRESU" Value="mg/dL"/>
      <ItemData ItemOID="IT.LB.LBORNRLO" Value="8.4"/>
      <ItemData ItemOID="IT.LB.LBORNRHI" Value="10.3"/>
      <ItemData ItemOID="IT.LB.LBSTRESC" Value="2.1457"/>
      <ItemData ItemOID="IT.LB.LBSTRESN" Value="2.1457"/>
      <ItemData ItemOID="IT.LB.LBSTRESU" Value="mmol/L"/>
      <ItemData ItemOID="IT.LB.LBSTNRLO" Value="2.1"/>
      <ItemData ItemOID="IT.LB.LBSTNRHI" Value="2.57"/>
      <ItemData ItemOID="IT.LB.LBNRIND" Value="NORMAL"/>
      <ItemData ItemOID="IT.LB.VISITNUM" Value="4"/>
      <ItemData ItemOID="IT.LB.VISIT" Value="WEEK 2"/>
      <ItemData ItemOID="IT.LB.EPOCH" Value="TREATMENT"/>
      <ItemData ItemOID="IT.LB.LBDTC" Value="2012-11-28T10:00"/>
      <ItemData ItemOID="IT.LB.LBDY" Value="14"/>
    </ItemGroupData>
    <ItemGroupData ItemGroupOID="IG.LB" data:ItemGroupDataSeq="131">
      <ItemData ItemOID="IT.LB.STUDYID" Value="CDISCPILOT01"/>
      <ItemData ItemOID="IT.LB.DOMAIN" Value="LB"/>
      <ItemData ItemOID="IT.LB.USUBJID" Value="CDISC002"/>
      <ItemData ItemOID="IT.LB.LBSEQ" Value="46"/>
      <ItemData ItemOID="IT.LB.LBTESTCD" Value="CHOL"/>
      <ItemData ItemOID="IT.LB.LBTEST" Value="Cholesterol"/>
      <ItemData ItemOID="IT.LB.LBCAT" Value="CHEMISTRY"/>
      <ItemData ItemOID="IT.LB.LBORRES" Value="167"/>
      <ItemData ItemOID="IT.LB.LBORRESU" Value="mg/dL"/>
      <ItemData ItemOID="IT.LB.LBORNRLO" Value="156"/>
      <ItemData ItemOID="IT.LB.LBORNRHI" Value="300"/>
      <ItemData ItemOID="IT.LB.LBSTRESC" Value="4.31862"/>
      <ItemData ItemOID="IT.LB.LBSTRESN" Value="4.31862"/>
      <ItemData ItemOID="IT.LB.LBSTRESU" Value="mmol/L"/>
      <ItemData ItemOID="IT.LB.LBSTNRLO" Value="4.03"/>
      <ItemData ItemOID="IT.LB.LBSTNRHI" Value="7.76"/>
      <ItemData ItemOID="IT.LB.LBNRIND" Value="NORMAL"/>
      <ItemData ItemOID="IT.LB.VISITNUM" Value="4"/>
      <ItemData ItemOID="IT.LB.VISIT" Value="WEEK 2"/>
      <ItemData ItemOID="IT.LB.EPOCH" Value="TREATMENT"/>
      <ItemData ItemOID="IT.LB.LBDTC" Value="2012-11-28T10:00"/>
      <ItemData ItemOID="IT.LB.LBDY" Value="14"/>
    </ItemGroupData>
    <ItemGroupData ItemGroupOID="IG.LB" data:ItemGroupDataSeq="132">
      <ItemData ItemOID="IT.LB.STUDYID" Value="CDISCPILOT01"/>
      <ItemData ItemOID="IT.LB.DOMAIN" Value="LB"/>
      <ItemData ItemOID="IT.LB.USUBJID" Value="CDISC002"/>
      <ItemData ItemOID="IT.LB.LBSEQ" Value="47"/>
      <ItemData ItemOID="IT.LB.LBTESTCD" Value="CK"/>
      <ItemData ItemOID="IT.LB.LBTEST" Value="Creatine Kinase"/>
      <ItemData ItemOID="IT.LB.LBCAT" Value="CHEMISTRY"/>
      <ItemData ItemOID="IT.LB.LBORRES" Value="114"/>
      <ItemData ItemOID="IT.LB.LBORRESU" Value="U/L"/>
      <ItemData ItemOID="IT.LB.LBORNRLO" Value="21"/>
      <ItemData ItemOID="IT.LB.LBORNRHI" Value="169"/>
      <ItemData ItemOID="IT.LB.LBSTRESC" Value="114"/>
      <ItemData ItemOID="IT.LB.LBSTRESN" Value="114"/>
      <ItemData ItemOID="IT.LB.LBSTRESU" Value="U/L"/>
      <ItemData ItemOID="IT.LB.LBSTNRLO" Value="21"/>
      <ItemData ItemOID="IT.LB.LBSTNRHI" Value="169"/>
      <ItemData ItemOID="IT.LB.LBNRIND" Value="NORMAL"/>
      <ItemData ItemOID="IT.LB.VISITNUM" Value="4"/>
      <ItemData ItemOID="IT.LB.VISIT" Value="WEEK 2"/>
      <ItemData ItemOID="IT.LB.EPOCH" Value="TREATMENT"/>
      <ItemData ItemOID="IT.LB.LBDTC" Value="2012-11-28T10:00"/>
      <ItemData ItemOID="IT.LB.LBDY" Value="14"/>
    </ItemGroupData>
    <ItemGroupData ItemGroupOID="IG.LB" data:ItemGroupDataSeq="133">
      <ItemData ItemOID="IT.LB.STUDYID" Value="CDISCPILOT01"/>
      <ItemData ItemOID="IT.LB.DOMAIN" Value="LB"/>
      <ItemData ItemOID="IT.LB.USUBJID" Value="CDISC002"/>
      <ItemData ItemOID="IT.LB.LBSEQ" Value="48"/>
      <ItemData ItemOID="IT.LB.LBTESTCD" Value="CL"/>
      <ItemData ItemOID="IT.LB.LBTEST" Value="Chloride"/>
      <ItemData ItemOID="IT.LB.LBCAT" Value="CHEMISTRY"/>
      <ItemData ItemOID="IT.LB.LBORRES" Value="97"/>
      <ItemData ItemOID="IT.LB.LBORRESU" Value="mEq/L"/>
      <ItemData ItemOID="IT.LB.LBORNRLO" Value="94"/>
      <ItemData ItemOID="IT.LB.LBORNRHI" Value="112"/>
      <ItemData ItemOID="IT.LB.LBSTRESC" Value="97"/>
      <ItemData ItemOID="IT.LB.LBSTRESN" Value="97"/>
      <ItemData ItemOID="IT.LB.LBSTRESU" Value="mmol/L"/>
      <ItemData ItemOID="IT.LB.LBSTNRLO" Value="94"/>
      <ItemData ItemOID="IT.LB.LBSTNRHI" Value="112"/>
      <ItemData ItemOID="IT.LB.LBNRIND" Value="NORMAL"/>
      <ItemData ItemOID="IT.LB.VISITNUM" Value="4"/>
      <ItemData ItemOID="IT.LB.VISIT" Value="WEEK 2"/>
      <ItemData ItemOID="IT.LB.EPOCH" Value="TREATMENT"/>
      <ItemData ItemOID="IT.LB.LBDTC" Value="2012-11-28T10:00"/>
      <ItemData ItemOID="IT.LB.LBDY" Value="14"/>
    </ItemGroupData>
    <ItemGroupData ItemGroupOID="IG.LB" data:ItemGroupDataSeq="134">
      <ItemData ItemOID="IT.LB.STUDYID" Value="CDISCPILOT01"/>
      <ItemData ItemOID="IT.LB.DOMAIN" Value="LB"/>
      <ItemData ItemOID="IT.LB.USUBJID" Value="CDISC002"/>
      <ItemData ItemOID="IT.LB.LBSEQ" Value="50"/>
      <ItemData ItemOID="IT.LB.LBTESTCD" Value="CREAT"/>
      <ItemData ItemOID="IT.LB.LBTEST" Value="Creatinine"/>
      <ItemData ItemOID="IT.LB.LBCAT" Value="CHEMISTRY"/>
      <ItemData ItemOID="IT.LB.LBORRES" Value="1.2"/>
      <ItemData ItemOID="IT.LB.LBORRESU" Value="mg/dL"/>
      <ItemData ItemOID="IT.LB.LBORNRLO" Value="0.7"/>
      <ItemData ItemOID="IT.LB.LBORNRHI" Value="1.4"/>
      <ItemData ItemOID="IT.LB.LBSTRESC" Value="106.08"/>
      <ItemData ItemOID="IT.LB.LBSTRESN" Value="106.08"/>
      <ItemData ItemOID="IT.LB.LBSTRESU" Value="umol/L"/>
      <ItemData ItemOID="IT.LB.LBSTNRLO" Value="62"/>
      <ItemData ItemOID="IT.LB.LBSTNRHI" Value="124"/>
      <ItemData ItemOID="IT.LB.LBNRIND" Value="NORMAL"/>
      <ItemData ItemOID="IT.LB.VISITNUM" Value="4"/>
      <ItemData ItemOID="IT.LB.VISIT" Value="WEEK 2"/>
      <ItemData ItemOID="IT.LB.EPOCH" Value="TREATMENT"/>
      <ItemData ItemOID="IT.LB.LBDTC" Value="2012-11-28T10:00"/>
      <ItemData ItemOID="IT.LB.LBDY" Value="14"/>
    </ItemGroupData>
    <ItemGroupData ItemGroupOID="IG.LB" data:ItemGroupDataSeq="135">
      <ItemData ItemOID="IT.LB.STUDYID" Value="CDISCPILOT01"/>
      <ItemData ItemOID="IT.LB.DOMAIN" Value="LB"/>
      <ItemData ItemOID="IT.LB.USUBJID" Value="CDISC002"/>
      <ItemData ItemOID="IT.LB.LBSEQ" Value="52"/>
      <ItemData ItemOID="IT.LB.LBTESTCD" Value="GGT"/>
      <ItemData ItemOID="IT.LB.LBTEST" Value="Gamma Glutamyl Transferase"/>
      <ItemData ItemOID="IT.LB.LBCAT" Value="CHEMISTRY"/>
      <ItemData ItemOID="IT.LB.LBORRES" Value="25"/>
      <ItemData ItemOID="IT.LB.LBORRESU" Value="U/L"/>
      <ItemData ItemOID="IT.LB.LBORNRLO" Value="5"/>
      <ItemData ItemOID="IT.LB.LBORNRHI" Value="50"/>
      <ItemData ItemOID="IT.LB.LBSTRESC" Value="25"/>
      <ItemData ItemOID="IT.LB.LBSTRESN" Value="25"/>
      <ItemData ItemOID="IT.LB.LBSTRESU" Value="U/L"/>
      <ItemData ItemOID="IT.LB.LBSTNRLO" Value="5"/>
      <ItemData ItemOID="IT.LB.LBSTNRHI" Value="50"/>
      <ItemData ItemOID="IT.LB.LBNRIND" Value="NORMAL"/>
      <ItemData ItemOID="IT.LB.VISITNUM" Value="4"/>
      <ItemData ItemOID="IT.LB.VISIT" Value="WEEK 2"/>
      <ItemData ItemOID="IT.LB.EPOCH" Value="TREATMENT"/>
      <ItemData ItemOID="IT.LB.LBDTC" Value="2012-11-28T10:00"/>
      <ItemData ItemOID="IT.LB.LBDY" Value="14"/>
    </ItemGroupData>
    <ItemGroupData ItemGroupOID="IG.LB" data:ItemGroupDataSeq="136">
      <ItemData ItemOID="IT.LB.STUDYID" Value="CDISCPILOT01"/>
      <ItemData ItemOID="IT.LB.DOMAIN" Value="LB"/>
      <ItemData ItemOID="IT.LB.USUBJID" Value="CDISC002"/>
      <ItemData ItemOID="IT.LB.LBSEQ" Value="53"/>
      <ItemData ItemOID="IT.LB.LBTESTCD" Value="GLUC"/>
      <ItemData ItemOID="IT.LB.LBTEST" Value="Glucose"/>
      <ItemData ItemOID="IT.LB.LBCAT" Value="CHEMISTRY"/>
      <ItemData ItemOID="IT.LB.LBORRES" Value="72"/>
      <ItemData ItemOID="IT.LB.LBORRESU" Value="mg/dL"/>
      <ItemData ItemOID="IT.LB.LBORNRLO" Value="50"/>
      <ItemData ItemOID="IT.LB.LBORNRHI" Value="250"/>
      <ItemData ItemOID="IT.LB.LBSTRESC" Value="3.99672"/>
      <ItemData ItemOID="IT.LB.LBSTRESN" Value="3.99672"/>
      <ItemData ItemOID="IT.LB.LBSTRESU" Value="mmol/L"/>
      <ItemData ItemOID="IT.LB.LBSTNRLO" Value="2.8"/>
      <ItemData ItemOID="IT.LB.LBSTNRHI" Value="13.9"/>
      <ItemData ItemOID="IT.LB.LBNRIND" Value="NORMAL"/>
      <ItemData ItemOID="IT.LB.VISITNUM" Value="4"/>
      <ItemData ItemOID="IT.LB.VISIT" Value="WEEK 2"/>
      <ItemData ItemOID="IT.LB.EPOCH" Value="TREATMENT"/>
      <ItemData ItemOID="IT.LB.LBDTC" Value="2012-11-28T10:00"/>
      <ItemData ItemOID="IT.LB.LBDY" Value="14"/>
    </ItemGroupData>
    <ItemGroupData ItemGroupOID="IG.LB" data:ItemGroupDataSeq="137">
      <ItemData ItemOID="IT.LB.STUDYID" Value="CDISCPILOT01"/>
      <ItemData ItemOID="IT.LB.DOMAIN" Value="LB"/>
      <ItemData ItemOID="IT.LB.USUBJID" Value="CDISC002"/>
      <ItemData ItemOID="IT.LB.LBSEQ" Value="56"/>
      <ItemData ItemOID="IT.LB.LBTESTCD" Value="K"/>
      <ItemData ItemOID="IT.LB.LBTEST" Value="Potassium"/>
      <ItemData ItemOID="IT.LB.LBCAT" Value="CHEMISTRY"/>
      <ItemData ItemOID="IT.LB.LBORRES" Value="3.6"/>
      <ItemData ItemOID="IT.LB.LBORRESU" Value="mEq/L"/>
      <ItemData ItemOID="IT.LB.LBORNRLO" Value="3.4"/>
      <ItemData ItemOID="IT.LB.LBORNRHI" Value="5.4"/>
      <ItemData ItemOID="IT.LB.LBSTRESC" Value="3.6"/>
      <ItemData ItemOID="IT.LB.LBSTRESN" Value="3.6"/>
      <ItemData ItemOID="IT.LB.LBSTRESU" Value="mmol/L"/>
      <ItemData ItemOID="IT.LB.LBSTNRLO" Value="3.4"/>
      <ItemData ItemOID="IT.LB.LBSTNRHI" Value="5.4"/>
      <ItemData ItemOID="IT.LB.LBNRIND" Value="NORMAL"/>
      <ItemData ItemOID="IT.LB.VISITNUM" Value="4"/>
      <ItemData ItemOID="IT.LB.VISIT" Value="WEEK 2"/>
      <ItemData ItemOID="IT.LB.EPOCH" Value="TREATMENT"/>
      <ItemData ItemOID="IT.LB.LBDTC" Value="2012-11-28T10:00"/>
      <ItemData ItemOID="IT.LB.LBDY" Value="14"/>
    </ItemGroupData>
    <ItemGroupData ItemGroupOID="IG.LB" data:ItemGroupDataSeq="138">
      <ItemData ItemOID="IT.LB.STUDYID" Value="CDISCPILOT01"/>
      <ItemData ItemOID="IT.LB.DOMAIN" Value="LB"/>
      <ItemData ItemOID="IT.LB.USUBJID" Value="CDISC002"/>
      <ItemData ItemOID="IT.LB.LBSEQ" Value="63"/>
      <ItemData ItemOID="IT.LB.LBTESTCD" Value="SODIUM"/>
      <ItemData ItemOID="IT.LB.LBTEST" Value="Sodium"/>
      <ItemData ItemOID="IT.LB.LBCAT" Value="CHEMISTRY"/>
      <ItemData ItemOID="IT.LB.LBORRES" Value="137"/>
      <ItemData ItemOID="IT.LB.LBORRESU" Value="mEq/L"/>
      <ItemData ItemOID="IT.LB.LBORNRLO" Value="135"/>
      <ItemData ItemOID="IT.LB.LBORNRHI" Value="145"/>
      <ItemData ItemOID="IT.LB.LBSTRESC" Value="137"/>
      <ItemData ItemOID="IT.LB.LBSTRESN" Value="137"/>
      <ItemData ItemOID="IT.LB.LBSTRESU" Value="mmol/L"/>
      <ItemData ItemOID="IT.LB.LBSTNRLO" Value="135"/>
      <ItemData ItemOID="IT.LB.LBSTNRHI" Value="145"/>
      <ItemData ItemOID="IT.LB.LBNRIND" Value="NORMAL"/>
      <ItemData ItemOID="IT.LB.VISITNUM" Value="4"/>
      <ItemData ItemOID="IT.LB.VISIT" Value="WEEK 2"/>
      <ItemData ItemOID="IT.LB.EPOCH" Value="TREATMENT"/>
      <ItemData ItemOID="IT.LB.LBDTC" Value="2012-11-28T10:00"/>
      <ItemData ItemOID="IT.LB.LBDY" Value="14"/>
    </ItemGroupData>
    <ItemGroupData ItemGroupOID="IG.LB" data:ItemGroupDataSeq="139">
      <ItemData ItemOID="IT.LB.STUDYID" Value="CDISCPILOT01"/>
      <ItemData ItemOID="IT.LB.DOMAIN" Value="LB"/>
      <ItemData ItemOID="IT.LB.USUBJID" Value="CDISC002"/>
      <ItemData ItemOID="IT.LB.LBSEQ" Value="65"/>
      <ItemData ItemOID="IT.LB.LBTESTCD" Value="PHOS"/>
      <ItemData ItemOID="IT.LB.LBTEST" Value="Phosphate"/>
      <ItemData ItemOID="IT.LB.LBCAT" Value="CHEMISTRY"/>
      <ItemData ItemOID="IT.LB.LBORRES" Value="4.1"/>
      <ItemData ItemOID="IT.LB.LBORRESU" Value="mg/dL"/>
      <ItemData ItemOID="IT.LB.LBORNRLO" Value="2.2"/>
      <ItemData ItemOID="IT.LB.LBORNRHI" Value="5.1"/>
      <ItemData ItemOID="IT.LB.LBSTRESC" Value="1.32389"/>
      <ItemData ItemOID="IT.LB.LBSTRESN" Value="1.32389"/>
      <ItemData ItemOID="IT.LB.LBSTRESU" Value="mmol/L"/>
      <ItemData ItemOID="IT.LB.LBSTNRLO" Value="0.71"/>
      <ItemData ItemOID="IT.LB.LBSTNRHI" Value="1.65"/>
      <ItemData ItemOID="IT.LB.LBNRIND" Value="NORMAL"/>
      <ItemData ItemOID="IT.LB.VISITNUM" Value="4"/>
      <ItemData ItemOID="IT.LB.VISIT" Value="WEEK 2"/>
      <ItemData ItemOID="IT.LB.EPOCH" Value="TREATMENT"/>
      <ItemData ItemOID="IT.LB.LBDTC" Value="2012-11-28T10:00"/>
      <ItemData ItemOID="IT.LB.LBDY" Value="14"/>
    </ItemGroupData>
    <ItemGroupData ItemGroupOID="IG.LB" data:ItemGroupDataSeq="140">
      <ItemData ItemOID="IT.LB.STUDYID" Value="CDISCPILOT01"/>
      <ItemData ItemOID="IT.LB.DOMAIN" Value="LB"/>
      <ItemData ItemOID="IT.LB.USUBJID" Value="CDISC002"/>
      <ItemData ItemOID="IT.LB.LBSEQ" Value="67"/>
      <ItemData ItemOID="IT.LB.LBTESTCD" Value="PROT"/>
      <ItemData ItemOID="IT.LB.LBTEST" Value="Protein"/>
      <ItemData ItemOID="IT.LB.LBCAT" Value="CHEMISTRY"/>
      <ItemData ItemOID="IT.LB.LBORRES" Value="6.6"/>
      <ItemData ItemOID="IT.LB.LBORRESU" Value="g/dL"/>
      <ItemData ItemOID="IT.LB.LBORNRLO" Value="6"/>
      <ItemData ItemOID="IT.LB.LBORNRHI" Value="8"/>
      <ItemData ItemOID="IT.LB.LBSTRESC" Value="66"/>
      <ItemData ItemOID="IT.LB.LBSTRESN" Value="66"/>
      <ItemData ItemOID="IT.LB.LBSTRESU" Value="g/L"/>
      <ItemData ItemOID="IT.LB.LBSTNRLO" Value="60"/>
      <ItemData ItemOID="IT.LB.LBSTNRHI" Value="80"/>
      <ItemData ItemOID="IT.LB.LBNRIND" Value="NORMAL"/>
      <ItemData ItemOID="IT.LB.VISITNUM" Value="4"/>
      <ItemData ItemOID="IT.LB.VISIT" Value="WEEK 2"/>
      <ItemData ItemOID="IT.LB.EPOCH" Value="TREATMENT"/>
      <ItemData ItemOID="IT.LB.LBDTC" Value="2012-11-28T10:00"/>
      <ItemData ItemOID="IT.LB.LBDY" Value="14"/>
    </ItemGroupData>
    <ItemGroupData ItemGroupOID="IG.LB" data:ItemGroupDataSeq="141">
      <ItemData ItemOID="IT.LB.STUDYID" Value="CDISCPILOT01"/>
      <ItemData ItemOID="IT.LB.DOMAIN" Value="LB"/>
      <ItemData ItemOID="IT.LB.USUBJID" Value="CDISC002"/>
      <ItemData ItemOID="IT.LB.LBSEQ" Value="70"/>
      <ItemData ItemOID="IT.LB.LBTESTCD" Value="URATE"/>
      <ItemData ItemOID="IT.LB.LBTEST" Value="Urate"/>
      <ItemData ItemOID="IT.LB.LBCAT" Value="CHEMISTRY"/>
      <ItemData ItemOID="IT.LB.LBORRES" Value="5.0"/>
      <ItemData ItemOID="IT.LB.LBORRESU" Value="mg/dL"/>
      <ItemData ItemOID="IT.LB.LBORNRLO" Value="2.5"/>
      <ItemData ItemOID="IT.LB.LBORNRHI" Value="7.5"/>
      <ItemData ItemOID="IT.LB.LBSTRESC" Value="297.4"/>
      <ItemData ItemOID="IT.LB.LBSTRESN" Value="297.4"/>
      <ItemData ItemOID="IT.LB.LBSTRESU" Value="umol/L"/>
      <ItemData ItemOID="IT.LB.LBSTNRLO" Value="149"/>
      <ItemData ItemOID="IT.LB.LBSTNRHI" Value="446"/>
      <ItemData ItemOID="IT.LB.LBNRIND" Value="NORMAL"/>
      <ItemData ItemOID="IT.LB.VISITNUM" Value="4"/>
      <ItemData ItemOID="IT.LB.VISIT" Value="WEEK 2"/>
      <ItemData ItemOID="IT.LB.EPOCH" Value="TREATMENT"/>
      <ItemData ItemOID="IT.LB.LBDTC" Value="2012-11-28T10:00"/>
      <ItemData ItemOID="IT.LB.LBDY" Value="14"/>
    </ItemGroupData>
    <ItemGroupData ItemGroupOID="IG.LB" data:ItemGroupDataSeq="142">
      <ItemData ItemOID="IT.LB.STUDYID" Value="CDISCPILOT01"/>
      <ItemData ItemOID="IT.LB.DOMAIN" Value="LB"/>
      <ItemData ItemOID="IT.LB.USUBJID" Value="CDISC002"/>
      <ItemData ItemOID="IT.LB.LBSEQ" Value="73"/>
      <ItemData ItemOID="IT.LB.LBTESTCD" Value="ALB"/>
      <ItemData ItemOID="IT.LB.LBTEST" Value="Albumin"/>
      <ItemData ItemOID="IT.LB.LBCAT" Value="CHEMISTRY"/>
      <ItemData ItemOID="IT.LB.LBORRES" Value="3.6"/>
      <ItemData ItemOID="IT.LB.LBORRESU" Value="g/dL"/>
      <ItemData ItemOID="IT.LB.LBORNRLO" Value="3.5"/>
      <ItemData ItemOID="IT.LB.LBORNRHI" Value="4.6"/>
      <ItemData ItemOID="IT.LB.LBSTRESC" Value="36"/>
      <ItemData ItemOID="IT.LB.LBSTRESN" Value="36"/>
      <ItemData ItemOID="IT.LB.LBSTRESU" Value="g/L"/>
      <ItemData ItemOID="IT.LB.LBSTNRLO" Value="35"/>
      <ItemData ItemOID="IT.LB.LBSTNRHI" Value="46"/>
      <ItemData ItemOID="IT.LB.LBNRIND" Value="NORMAL"/>
      <ItemData ItemOID="IT.LB.VISITNUM" Value="5"/>
      <ItemData ItemOID="IT.LB.VISIT" Value="WEEK 4"/>
      <ItemData ItemOID="IT.LB.EPOCH" Value="TREATMENT"/>
      <ItemData ItemOID="IT.LB.LBDTC" Value="2012-12-11T12:16"/>
      <ItemData ItemOID="IT.LB.LBDY" Value="27"/>
    </ItemGroupData>
    <ItemGroupData ItemGroupOID="IG.LB" data:ItemGroupDataSeq="143">
      <ItemData ItemOID="IT.LB.STUDYID" Value="CDISCPILOT01"/>
      <ItemData ItemOID="IT.LB.DOMAIN" Value="LB"/>
      <ItemData ItemOID="IT.LB.USUBJID" Value="CDISC002"/>
      <ItemData ItemOID="IT.LB.LBSEQ" Value="74"/>
      <ItemData ItemOID="IT.LB.LBTESTCD" Value="ALP"/>
      <ItemData ItemOID="IT.LB.LBTEST" Value="Alkaline Phosphatase"/>
      <ItemData ItemOID="IT.LB.LBCAT" Value="CHEMISTRY"/>
      <ItemData ItemOID="IT.LB.LBORRES" Value="136"/>
      <ItemData ItemOID="IT.LB.LBORRESU" Value="U/L"/>
      <ItemData ItemOID="IT.LB.LBORNRLO" Value="35"/>
      <ItemData ItemOID="IT.LB.LBORNRHI" Value="115"/>
      <ItemData ItemOID="IT.LB.LBSTRESC" Value="136"/>
      <ItemData ItemOID="IT.LB.LBSTRESN" Value="136"/>
      <ItemData ItemOID="IT.LB.LBSTRESU" Value="U/L"/>
      <ItemData ItemOID="IT.LB.LBSTNRLO" Value="35"/>
      <ItemData ItemOID="IT.LB.LBSTNRHI" Value="115"/>
      <ItemData ItemOID="IT.LB.LBNRIND" Value="HIGH"/>
      <ItemData ItemOID="IT.LB.VISITNUM" Value="5"/>
      <ItemData ItemOID="IT.LB.VISIT" Value="WEEK 4"/>
      <ItemData ItemOID="IT.LB.EPOCH" Value="TREATMENT"/>
      <ItemData ItemOID="IT.LB.LBDTC" Value="2012-12-11T12:16"/>
      <ItemData ItemOID="IT.LB.LBDY" Value="27"/>
    </ItemGroupData>
    <ItemGroupData ItemGroupOID="IG.LB" data:ItemGroupDataSeq="144">
      <ItemData ItemOID="IT.LB.STUDYID" Value="CDISCPILOT01"/>
      <ItemData ItemOID="IT.LB.DOMAIN" Value="LB"/>
      <ItemData ItemOID="IT.LB.USUBJID" Value="CDISC002"/>
      <ItemData ItemOID="IT.LB.LBSEQ" Value="75"/>
      <ItemData ItemOID="IT.LB.LBTESTCD" Value="ALT"/>
      <ItemData ItemOID="IT.LB.LBTEST" Value="Alanine Aminotransferase"/>
      <ItemData ItemOID="IT.LB.LBCAT" Value="CHEMISTRY"/>
      <ItemData ItemOID="IT.LB.LBORRES" Value="14"/>
      <ItemData ItemOID="IT.LB.LBORRESU" Value="U/L"/>
      <ItemData ItemOID="IT.LB.LBORNRLO" Value="6"/>
      <ItemData ItemOID="IT.LB.LBORNRHI" Value="32"/>
      <ItemData ItemOID="IT.LB.LBSTRESC" Value="14"/>
      <ItemData ItemOID="IT.LB.LBSTRESN" Value="14"/>
      <ItemData ItemOID="IT.LB.LBSTRESU" Value="U/L"/>
      <ItemData ItemOID="IT.LB.LBSTNRLO" Value="6"/>
      <ItemData ItemOID="IT.LB.LBSTNRHI" Value="32"/>
      <ItemData ItemOID="IT.LB.LBNRIND" Value="NORMAL"/>
      <ItemData ItemOID="IT.LB.VISITNUM" Value="5"/>
      <ItemData ItemOID="IT.LB.VISIT" Value="WEEK 4"/>
      <ItemData ItemOID="IT.LB.EPOCH" Value="TREATMENT"/>
      <ItemData ItemOID="IT.LB.LBDTC" Value="2012-12-11T12:16"/>
      <ItemData ItemOID="IT.LB.LBDY" Value="27"/>
    </ItemGroupData>
    <ItemGroupData ItemGroupOID="IG.LB" data:ItemGroupDataSeq="145">
      <ItemData ItemOID="IT.LB.STUDYID" Value="CDISCPILOT01"/>
      <ItemData ItemOID="IT.LB.DOMAIN" Value="LB"/>
      <ItemData ItemOID="IT.LB.USUBJID" Value="CDISC002"/>
      <ItemData ItemOID="IT.LB.LBSEQ" Value="76"/>
      <ItemData ItemOID="IT.LB.LBTESTCD" Value="AST"/>
      <ItemData ItemOID="IT.LB.LBTEST" Value="Aspartate Aminotransferase"/>
      <ItemData ItemOID="IT.LB.LBCAT" Value="CHEMISTRY"/>
      <ItemData ItemOID="IT.LB.LBORRES" Value="15"/>
      <ItemData ItemOID="IT.LB.LBORRESU" Value="U/L"/>
      <ItemData ItemOID="IT.LB.LBORNRLO" Value="9"/>
      <ItemData ItemOID="IT.LB.LBORNRHI" Value="34"/>
      <ItemData ItemOID="IT.LB.LBSTRESC" Value="15"/>
      <ItemData ItemOID="IT.LB.LBSTRESN" Value="15"/>
      <ItemData ItemOID="IT.LB.LBSTRESU" Value="U/L"/>
      <ItemData ItemOID="IT.LB.LBSTNRLO" Value="9"/>
      <ItemData ItemOID="IT.LB.LBSTNRHI" Value="34"/>
      <ItemData ItemOID="IT.LB.LBNRIND" Value="NORMAL"/>
      <ItemData ItemOID="IT.LB.VISITNUM" Value="5"/>
      <ItemData ItemOID="IT.LB.VISIT" Value="WEEK 4"/>
      <ItemData ItemOID="IT.LB.EPOCH" Value="TREATMENT"/>
      <ItemData ItemOID="IT.LB.LBDTC" Value="2012-12-11T12:16"/>
      <ItemData ItemOID="IT.LB.LBDY" Value="27"/>
    </ItemGroupData>
    <ItemGroupData ItemGroupOID="IG.LB" data:ItemGroupDataSeq="146">
      <ItemData ItemOID="IT.LB.STUDYID" Value="CDISCPILOT01"/>
      <ItemData ItemOID="IT.LB.DOMAIN" Value="LB"/>
      <ItemData ItemOID="IT.LB.USUBJID" Value="CDISC002"/>
      <ItemData ItemOID="IT.LB.LBSEQ" Value="78"/>
      <ItemData ItemOID="IT.LB.LBTESTCD" Value="BILI"/>
      <ItemData ItemOID="IT.LB.LBTEST" Value="Bilirubin"/>
      <ItemData ItemOID="IT.LB.LBCAT" Value="CHEMISTRY"/>
      <ItemData ItemOID="IT.LB.LBORRES" Value="0.9"/>
      <ItemData ItemOID="IT.LB.LBORRESU" Value="mg/dL"/>
      <ItemData ItemOID="IT.LB.LBORNRLO" Value="0.2"/>
      <ItemData ItemOID="IT.LB.LBORNRHI" Value="1.2"/>
      <ItemData ItemOID="IT.LB.LBSTRESC" Value="15.39"/>
      <ItemData ItemOID="IT.LB.LBSTRESN" Value="15.39"/>
      <ItemData ItemOID="IT.LB.LBSTRESU" Value="umol/L"/>
      <ItemData ItemOID="IT.LB.LBSTNRLO" Value="3"/>
      <ItemData ItemOID="IT.LB.LBSTNRHI" Value="21"/>
      <ItemData ItemOID="IT.LB.LBNRIND" Value="NORMAL"/>
      <ItemData ItemOID="IT.LB.VISITNUM" Value="5"/>
      <ItemData ItemOID="IT.LB.VISIT" Value="WEEK 4"/>
      <ItemData ItemOID="IT.LB.EPOCH" Value="TREATMENT"/>
      <ItemData ItemOID="IT.LB.LBDTC" Value="2012-12-11T12:16"/>
      <ItemData ItemOID="IT.LB.LBDY" Value="27"/>
    </ItemGroupData>
    <ItemGroupData ItemGroupOID="IG.LB" data:ItemGroupDataSeq="147">
      <ItemData ItemOID="IT.LB.STUDYID" Value="CDISCPILOT01"/>
      <ItemData ItemOID="IT.LB.DOMAIN" Value="LB"/>
      <ItemData ItemOID="IT.LB.USUBJID" Value="CDISC002"/>
      <ItemData ItemOID="IT.LB.LBSEQ" Value="79"/>
      <ItemData ItemOID="IT.LB.LBTESTCD" Value="UREAN"/>
      <ItemData ItemOID="IT.LB.LBTEST" Value="Urea Nitrogen"/>
      <ItemData ItemOID="IT.LB.LBCAT" Value="CHEMISTRY"/>
      <ItemData ItemOID="IT.LB.LBORRES" Value="21"/>
      <ItemData ItemOID="IT.LB.LBORRESU" Value="mg/dL"/>
      <ItemData ItemOID="IT.LB.LBORNRLO" Value="4"/>
      <ItemData ItemOID="IT.LB.LBORNRHI" Value="24"/>
      <ItemData ItemOID="IT.LB.LBSTRESC" Value="7.497"/>
      <ItemData ItemOID="IT.LB.LBSTRESN" Value="7.497"/>
      <ItemData ItemOID="IT.LB.LBSTRESU" Value="mmol/L"/>
      <ItemData ItemOID="IT.LB.LBSTNRLO" Value="1.4"/>
      <ItemData ItemOID="IT.LB.LBSTNRHI" Value="8.6"/>
      <ItemData ItemOID="IT.LB.LBNRIND" Value="NORMAL"/>
      <ItemData ItemOID="IT.LB.VISITNUM" Value="5"/>
      <ItemData ItemOID="IT.LB.VISIT" Value="WEEK 4"/>
      <ItemData ItemOID="IT.LB.EPOCH" Value="TREATMENT"/>
      <ItemData ItemOID="IT.LB.LBDTC" Value="2012-12-11T12:16"/>
      <ItemData ItemOID="IT.LB.LBDY" Value="27"/>
    </ItemGroupData>
    <ItemGroupData ItemGroupOID="IG.LB" data:ItemGroupDataSeq="148">
      <ItemData ItemOID="IT.LB.STUDYID" Value="CDISCPILOT01"/>
      <ItemData ItemOID="IT.LB.DOMAIN" Value="LB"/>
      <ItemData ItemOID="IT.LB.USUBJID" Value="CDISC002"/>
      <ItemData ItemOID="IT.LB.LBSEQ" Value="80"/>
      <ItemData ItemOID="IT.LB.LBTESTCD" Value="CA"/>
      <ItemData ItemOID="IT.LB.LBTEST" Value="Calcium"/>
      <ItemData ItemOID="IT.LB.LBCAT" Value="CHEMISTRY"/>
      <ItemData ItemOID="IT.LB.LBORRES" Value="9.0"/>
      <ItemData ItemOID="IT.LB.LBORRESU" Value="mg/dL"/>
      <ItemData ItemOID="IT.LB.LBORNRLO" Value="8.4"/>
      <ItemData ItemOID="IT.LB.LBORNRHI" Value="10.3"/>
      <ItemData ItemOID="IT.LB.LBSTRESC" Value="2.2455"/>
      <ItemData ItemOID="IT.LB.LBSTRESN" Value="2.2455"/>
      <ItemData ItemOID="IT.LB.LBSTRESU" Value="mmol/L"/>
      <ItemData ItemOID="IT.LB.LBSTNRLO" Value="2.1"/>
      <ItemData ItemOID="IT.LB.LBSTNRHI" Value="2.57"/>
      <ItemData ItemOID="IT.LB.LBNRIND" Value="NORMAL"/>
      <ItemData ItemOID="IT.LB.VISITNUM" Value="5"/>
      <ItemData ItemOID="IT.LB.VISIT" Value="WEEK 4"/>
      <ItemData ItemOID="IT.LB.EPOCH" Value="TREATMENT"/>
      <ItemData ItemOID="IT.LB.LBDTC" Value="2012-12-11T12:16"/>
      <ItemData ItemOID="IT.LB.LBDY" Value="27"/>
    </ItemGroupData>
    <ItemGroupData ItemGroupOID="IG.LB" data:ItemGroupDataSeq="149">
      <ItemData ItemOID="IT.LB.STUDYID" Value="CDISCPILOT01"/>
      <ItemData ItemOID="IT.LB.DOMAIN" Value="LB"/>
      <ItemData ItemOID="IT.LB.USUBJID" Value="CDISC002"/>
      <ItemData ItemOID="IT.LB.LBSEQ" Value="81"/>
      <ItemData ItemOID="IT.LB.LBTESTCD" Value="CHOL"/>
      <ItemData ItemOID="IT.LB.LBTEST" Value="Cholesterol"/>
      <ItemData ItemOID="IT.LB.LBCAT" Value="CHEMISTRY"/>
      <ItemData ItemOID="IT.LB.LBORRES" Value="205"/>
      <ItemData ItemOID="IT.LB.LBORRESU" Value="mg/dL"/>
      <ItemData ItemOID="IT.LB.LBORNRLO" Value="156"/>
      <ItemData ItemOID="IT.LB.LBORNRHI" Value="300"/>
