"Pinnacle 21 ID","Publisher ID","Message","Description","Category","Severity"
"CT2001","FDAB017, 40, 49, 55, 141, 143, 147, 148, 164, 165, 172, 182, 251, 40, 49, 55, 141, 143, 147, 148, 164, 165, 172, 182, 251","Variable value not found in non-extensible codelist","Variable must be populated with terms from its CDISC controlled terminology codelist. New terms cannot be added into non-extensible codelists.","Terminology",""
"CT2002","FDAB017, 16, 33, 40, 49, 181, 189, 16, 33, 40, 49, 181, 189","Variable value not found in extensible codelist","Variable should be populated with terms from its CDISC controlled terminology codelist. New terms can be added as long as they are not duplicates, synonyms or subsets of existing standard terms.","Terminology",""
"CT2003","FDAB009","Coded and Decoded values do not have the same Code in CDISC CT","Paired variables such as TEST/TESTCD must be populated using terms with the same Codelist Code value in CDISC control terminology. There is one-to-one relationship between paired variable values defined in CDISC control terminology by Codelist Code value.","Terminology",""
"CT2004","40, 49","Variable value not found in non-extensible codelist when value-level condition occurs","Variable must be populated with terms from its CDISC controlled terminology codelist when its value level condition is met. New terms cannot be added into non-extensible codelists.","Terminology",""
"CT2005","40, 49","Variable value not found in extensible codelist when value-level condition occurs","Variable should be populated with terms from its CDISC controlled terminology codelist when its value level condition is met. New terms can be added as long as they are not duplicates, synonyms or subsets of existing standard terms.","Terminology",""
"CT2006","FDAB009","Coded and Decoded values do not have the same Code in CDISC CT when value-level condition occurs","Paired variables such as TEST/TESTCD must be populated using terms with the same Codelist Code value in CDISC control terminology. There is one-to-one relationship between paired variable values defined in CDISC control terminology by Codelist Code value within the same value level condition.","Terminology",""
"DD0101","eCTD 1736","Missing define.xml file","Guidance provided by regulatory agencies states that eCTD submissions must include a define.xml file for each study in Module 4 (nonclinical) and Module 5 (clinical). Note: Refer to the data standards catalog by the relevant Regulatory Agency for acceptance of standards and their versions.","Presence","Reject"
"SD0001","278","No records in data source","Domain table should have at least one record.","Presence",""
"SD0002","12, 257","Null value in variable marked as Required","Required variables (where Core attribute is 'Req') cannot be null for any records.","Presence",""
"SD0003","66, 67, 68","Invalid ISO 8601 value for variable","Value of Dates/Time variables (*DTC) must conform to the ISO 8601 international standard.","Format",""
"SD0004","1","Inconsistent value for DOMAIN","Domain Abbreviation (DOMAIN) variable should be consistent with the name of the dataset.","Consistency",""
"SD0005","138, 354","Duplicate value for --SEQ variable","The value of Sequence Number (--SEQ) variable must be unique for each record within a domain and within each Unique Subject Identifier (USUBJID) or Pool Identifier (POOLID) variables value when they are present in the domain. Exclusions are DE, DO, DT, DU, and DX domains.","Consistency",""
"SD0007","FDAB030, 153","Inconsistent value for Standard Units","Standard Units (--STRESU) must be consistent for all records with the same Short Name of Measurement, Test or Examination (--TESTCD), Object of the Observation (--OBJ), Measurement Test, or Examination Detail (--TSTDTL), Category (--CAT), Specimen Type (--SPEC), Method of Test or Examination (--METHOD), and Marker String (--MRKSTR).","Consistency",""
"SD0012","FDAB034","--STDY is after --ENDY","Study Day of Start of Event, Exposure or Observation (--STDY) must be less or equal to Study Day of End of Event, Exposure or Observation (--ENDY).","Limit",""
"SD0013","FDAB034","--STDTC is after --ENDTC","Start Date/Time of Event, Exposure or Observation (--STDTC) must be less or equal to End Date/Time of Event, Exposure or Observation (--ENDTC).","Limit",""
"SD0014","FDAB040","Negative value for --DOSE","Non-missing Dose (--DOSE) value must be greater than or equal to 0.","Limit",""
"SD0015","FDAB040","Negative value for --DUR","Non-missing Duration of Event, Exposure or Observation (--DUR) value must be greater than or equal to 0.","Limit",""
"SD0016","172","Missing value for --STRESC when --DRVFL='Y'","Character Result/Finding in Std Format (--STRESC) value should not be null when Derived Flag (--DRVFL) value is 'Y'.","Consistency",""
"SD0017","64","Invalid value for --TEST variable","The value of Name of Measurement, Test or Examination (--TEST) should be no more than 40 characters in length.","Format",""
"SD0018","17, 18, 19","Invalid value for --TESTCD variable","The value of a Short Name of Measurement, Test or Examination (--TESTCD) variable should be limited to 8 characters, cannot start with a number, and cannot contain characters other than letters in upper case, numbers, or underscores.","Format",""
"SD0019","26, 232","Invalid value for --PARM variable","The value of Parameter (--PARM) variable should be no more than 40 characters in length.","Format",""
"SD0020","26, 232","Invalid value for --PARMCD variable","The value of Parameter Short Name (--PARMCD) variables should be no more than 8 characters in length.","Format",""
"SD0023","146","Missing value for --STAT when --REASND is provided","Completion Status (--STAT) should be set to 'NOT DONE' when Reason Not Done (--REASND) is populated.","Consistency",""
"SD0024","FDAB043","Missing value for --DTC when --ENDTC is provided","Date/Time of Collection (--DTC) should not be null when End Date/Time of Observation (--ENDTC) is not null.","Consistency",""
"SD0025","FDAB034, 58","--DTC is after --ENDTC","Date/Time of Specimen Collection (--DTC) must be less or equal to End Date/Time of Specimen Collection (--ENDTC).","Limit",""
"SD0026","","Missing value for --ORRESU when --ORRES is provided","Original Units (--ORRESU) should not be null when Result or Finding in Original Units (--ORRES) is provided is a numeric result.","Consistency",""
"SD0027","","Missing value for --ORRES when --ORRESU is provided","Result or Finding in Original Units (--ORRES) should not be null when Original Units (--ORRESU) is provided.","Consistency",""
"SD0028","FDAB039","Value for --STNRHI is less than value for --STNRLO","Reference Range Upper Limit-Std Units (--STNRHI) value must be greater than or equal to Reference Range Lower Limit-Std Units (--STNRLO) value.","Limit",""
"SD0029","193","Missing value for --STRESU when --STRESC is provided","Standard Units (--STRESU) should not be null when Character Result/Finding in Std Units (--STRESC) is provided as a numeric result.","Consistency",""
"SD0030","","Missing value for --STRESC when --STRESU is provided","Character Result/Finding in Std Units (--STRESC) should not be null when Standard Units (--STRESU) is provided.","Consistency",""
"SD0031","FDAB043","Missing values for --STDTC, --STRF and --STRTPT when --ENDTC, --ENRF or --ENRTPT is provided","Start Date/Time of Observation (--STDTC), Start Relative to Reference Period (--STRF) or Start Relative to Reference Time Point (--STRTPT) should not be null when End Date/Time of Observation (--ENDTC), End Relative to Reference Period (--ENRF) or End Relative to Reference Time Period (--ENRTPT) is not null.","Consistency",""
"SD0032","207","Missing value for --TPT when --TPTNUM is provided","Planned Time Point Name (--TPT) should not be null when Planned Time Point Number (--TPTNUM) is populated.","Consistency",""
"SD0033","207","Missing value for --TPTNUM when --TPT is provided","Planned Time Point Number (--TPTNUM) should not be null when Planned Time Point Name (--TPT) is populated.","Consistency",""
"SD0034","84, 279","Missing value for --TPTREF when --ELTM is provided","Time Point Reference (--TPTREF) should not be null when Planned Elapsed Time from Time Point Ref (--ELTM) is populated.","Consistency",""
"SD0035","","Missing value for --DOSU when --DOSE, --DOSTXT or --DOSTOT is provided","Dose Units (--DOSU) must be populated when Dose per Administration (--DOSE), Dose Description (--DOSTXT) or Total Daily Dose (--DOSTOT) is provided.","Consistency",""
"SD0036","87","Missing value for --STRESC when --ORRES is provided","Character Result/Finding in Std Units (--STRESC) must be populated when Result or Finding in Original Units (--ORRES) is provided.","Consistency",""
"SD0037","TCG 4.1.4.5, 52","Value for variable not found in user-defined codelist","Variable values should be populated with terms found in the user-defined codelist associated with the variable in define.xml.","Terminology",""
"SD0038","71, 72, 73, 74","Value of Study Day variable equals 0","Study Day variables (*DY) value should not equal 0.","Limit",""
"SD0040","FDAB009","Inconsistent value for --TEST within --TESTCD","All values of Name of Measurement, Test or Examination (--TEST) should be the same for a given value of Short Name of Measurement, Test or Examination (--TESTCD).","Consistency",""
"SD0043","","Missing value for --TRTV when --VAMT is not null","Treatment Vehicle (--TRTV) should be provided when Treatment Vehicle Amount (--VAMT) is specified.","Consistency",""
"SD0044","","Missing value for --VAMTU when --VAMT is populated","Treatment Vehicle Amount Units (--VAMTU) should not be null when Treatment Vehicle Amount (--VAMT) is populated.","Consistency",""
"SD0045","","Missing value for --STRESC when --RESCAT is populated","Character Result/Finding in Std Units (--STRESC) should be provided when Result Category (--RESCAT) is specified.","Consistency",""
"SD0046","FDAB009","Inconsistent value for QLABEL within QNAM","All values of Qualifier Variable Label (QLABEL) should be the same for a given value of Qualifier Variable Name (QNAM).","Consistency",""
"SD0047","85, 144, 145","Missing value for --ORRES when --STAT or --DRVFL is not populated","Status (--STAT) should be set to 'NOT DONE' or Derived Flag (--DRVFL) should have a value of 'Y' when Result or Finding in Original Units (--ORRES) is null.","Consistency",""
"SD0049","FDAB044","Missing value for --STTPT when --STRTPT is populated","Start Reference Time Point (--STTPT) must not be null when Start Relative to Reference Time Point (--STRTPT) is provided.","Consistency",""
"SD0050","FDAB044","Missing value for --ENTPT when --ENRTPT is populated","End Reference Time Point (--ENTPT) must not be null when End Relative to Reference Time Point (--ENRTPT) is provided.","Consistency",""
"SD0054","TCG 4.1.4.5, 5","Variable in define.xml is not present in the dataset","Variables listed in the data definition document (define.xml) should be included in the dataset.","Metadata",""
"SD0058","2, 10, 30, 31, 32, 268, 269, 270","Variable appears in dataset, but is not in SDTM model","Only variables listed in SDTM model should appear in a dataset. New sponsor defined variables must not be added, and existing variables must not be renamed or modified.","Metadata",""
"SD0059","TCG 4.1.4.5, 4","Define.xml/dataset variable type mismatch","Variable DataType in define.xml must match variable Type in dataset. Define-XML data types of 'integer' and 'float' match dataset type of 'Num', all other match 'Char'.","Metadata",""
"SD0060","TCG 4.1.4.5, 5","Variable in dataset is not present in define.xml","Variables included in the dataset must be described in the data definition document (define.xml).","Metadata",""
"SD0061","TCG 4.1.4.5, 300","Domain referenced in define.xml, but dataset is missing","Domains referenced in data definition document (define.xml) should be included in the submission.","Metadata",""
"SD0062","TCG 3.3.1, 272","Incompatible data source","Domain table must have a valid format (e.g., SAS transport (XPORT) v.5 or text-delimited).","Format",""
"SD0064","109, 410","Subject is not present in DM domain","All Subjects (USUBJID) must be present in Demographics (DM) domain.","Cross-reference",""
"SD0066","223","Invalid ARMCD","Planned Arm Code (ARMCD) values should match entries in the Trial Arms (TA) dataset, except for subjects who failed screening (ARMCD = 'SCRNFAIL') or were not fully assigned to an Arm (ARMCD = 'NOTASSGN').","Cross-reference",""
"SD0067","123","Invalid ETCD","Element Code (ETCD) values should match entries in the Trial Elements (TE) dataset, except for unplanned Element (ETCD = 'UNPLAN').","Cross-reference",""
"SD0071","223, 224, 225","Invalid ARM/ARMCD","The combination of Description of Planned Arm (ARM) and Planned Arm Code (ARMCD) values must match entries in the Trial Arms (TA) dataset, except for subjects who failed screening (ARMCD = 'SCRNFAIL') or were not fully assigned to an Arm (ARMCD = 'NOTASSGN').","Cross-reference",""
"SD0072","116","Invalid RDOMAIN","Related Domain Abbreviation (RDOMAIN) must have a valid value of Domains included in the study data.","Consistency",""
"SD0075","117","Invalid IDVAR","Identifying Variable (IDVAR) must have a valid value of variables from a referenced Domain.","Consistency",""
"SD0077","118, 121, 258, 259, 260","Invalid referenced record","Reference record defined by Related Domain Abbreviation (RDOMAIN), Unique Subject Identifier (USUBJID), Identifying Variable (IDVAR) and Identifying Variable Value (IDVARVAL) must exist in the target Domain.","Cross-reference",""
"SD0082","FDAB034","Exposure end date is after the latest Disposition date","End Date/Time of Treatment (EXENDTC) should be less than or equal to the Start Date/Time of the latest Disposition Event (DSSTDTC). Investigator should provide a date of study discontinuation for each subject in Disposition (DS) domain. If the study is ongoing, Parameter Value (TSVAL) for the 'ONGOSIND/Ongoing Study Indicator' parameter should be set to 'Y' in the Trial Summary (TS) domain.","Consistency",""
"SD0083","37, 97","Duplicate USUBJID in DM within STUDYID","The value of Unique Subject Identifier (USUBJID) variable must be unique for each subject across all trials in the submission. In the Demographics (DM) domain, there should only be one record per subject.","Consistency",""
"SD0084","FDAB040","Negative or zero value for AGE","The value of Age (AGE) cannot be less than or equal to 0.","Limit",""
"SD0086","254","SUPPQUAL duplicate records","All SUPPQUAL Domains records are associated with a single parent record and must have a unique combination of Study Identifier (STUDYID), Unique Subject Identifier (USUBJID), Identifying Variable (IDVAR), Identifying Variable Value (IDVARVAL) and Qualifier Variable Name (QNAM) variable value. For all SUPPQUAL domain record all The QNAM variable should be unique for each parent record.","Consistency",""
"SD0087","FDAB064","RFSTDTC is not provided for a randomized subject","Subject Reference Start Date/Time (RFSTDTC) should be populated for all randomized subjects, those where Planned Arm Code (ARMCD) is not equal to 'SCRNFAIL' or 'NOTASSGN' or null.","Consistency",""
"SD0088","","RFENDTC is not provided for a randomized subject","Subject Reference End Date/Time (RFENDTC) should be populated for all randomized subjects, those where Planned Arm Code (ARMCD) is not equal to 'SCRNFAIL' or 'NOTASSGN' or null. If the study is ongoing, Parameter Value (TSVAL) for the 'ONGOSIND/Ongoing Study Indicator' parameter should be set to 'Y' in the Trial Summary (TS) domain.","Consistency",""
"SD0089","214","Missing values for TEENRL and TEDUR","At least one of Rule for End of Element (TEENRL) or Planned Duration of Element (TEDUR) should be populated.","Consistency",""
"SD0092","125","Missing value for SEUPDES when ETCD='UNPLAN'","Description of Unplanned Element (SEUPDES) should be populated when subject's experience for a particular period of time is represented as an unplanned Element, where Element Code (ETCD) is equal to 'UNPLAN'.","Consistency",""
"SD0095","","Invalid usage of SUPPQUAL for non-general-observation-class Domain","Supplemental Qualifiers special purpose dataset (SUPP--) can only be used to capture non-standard variables and their association to parent records in general-observation-class datasets (Events, Findings, Interventions) and Demographics. Another exception is Subject Visits domain in SDTM-IG prior v3.4.","Presence",""
"SD1001","97","SUBJID is not unique for each subject within study","The value of Subject Identifier for the Study (SUBJID) variable must be unique for each subject within the study.","Consistency",""
"SD1002","FDAB034","RFSTDTC is after RFENDTC","Subject Reference Start Date/Time (RFSTDTC) must be less than or equal to Subject Reference End Date/Time (RFENDTC).","Limit",""
"SD1004","27","Invalid value for ARMCD exceeding 20 characters","The value of Planned Arm Code (ARMCD) should be no more than 20 characters in length.","Format",""
"SD1005","249","Invalid STUDYID","Study Identifier (STUDYID) values must match the STUDYID in Demographics (DM) domain.","Consistency",""
"SD1009","24","Invalid value for ETCD","The value of Element Code (ETCD) should be no more than 8 characters in length.","Format",""
"SD1010","124","ELEMENT value is populated when ETCD= 'UNPLAN'","Description of Element (ELEMENT) should be null when subject's experience for a particular period of time is represented as an unplanned Element, where Element Code (ETCD) is equal to 'UNPLAN'.","Consistency",""
"SD1011","59","Invalid ISO 8601 value for variable","Value of Duration, Elapsed Time, and Interval variables (--DUR, --ELTM, --EVLINT, --STINT, --ENINT, TDSTOFF, TDTGTPAI, TDMINPAI, TDMAXPAI) must conform to the ISO 8601 international standard.","Format",""
"SD1012","222","Invalid ETCD/ELEMENT","The combination of Element Code (ETCD) and Description of Element (ELEMENT) values should match entries in the Trial Elements (TE) dataset, except for unplanned Element (ETCD = 'UNPLAN').","Cross-reference",""
"SD1014","226","Invalid TAETORD","Order of Element within Arm (TAETORD) values should match entries in the Trial Arms (TA) dataset.","Cross-reference",""
"SD1020","eCTD 1736","Missing DM dataset","Demographics (DM) dataset must be included in every submission.","Presence","Reject"
"SD1021","FDAB015","Unexpected character value in variable","Character values should not have leading space ' ' characters, carriage returns, or '.' as an entire value. The only exceptions are COVALn and TSVALn variables.","Format",""
"SD1022","20, 21, 22, 23","Invalid value for QNAM variable","The value of Qualifier Variable Name (QNAM) should be limited to 8 characters, cannot start with a number, and cannot contain characters other than letters in upper case, numbers, or underscores.","Format",""
"SD1026","253, 253.1","Invalid value for RELTYPE variable","Relationship Type (RELTYPE) must be null when Identifying Variable (IDVAR) is populated with a --SEQ value.","Consistency",""
"SD1027","213","Non-unique value for ELEMENT within ETCD","Description of Element (ELEMENT) must have a unique value for a given value of Element Code (ETCD) within the domain.","Consistency",""
"SD1029","TCG 3.3.5, 17, 18, 19, 26, 64, 232","Non-ASCII or non-printable characters in variable","Variables value must not include non-ASCII or non-printable characters (outside of 32-126 ASCII code range), limited to variables which values may be converted into new variable name or label (--TEST, --TESTCD, --PARM, --PARMCD, QLABEL, QNAM).","Format",""
"SD1030","","Value for --STRF is populated when RFSTDTC is null","Start Relative to Reference Period (--STRF) should not be populated for subjects with missing value for Reference Start Date/Time (RFSTDTC).","Consistency",""
"SD1031","","Value for --ENRF is populated when RFENDTC is null","End Relative to Reference Period (--ENRF) should not be populated for subjects with missing value for Reference End Date/Time (RFENDTC).","Consistency",""
"SD1033","FDAB009","Inconsistent value for ARM","A value for Description of Planned Arm (ARM) must have a unique value for Planned Arm Code (ARMCD) with the domain.","Consistency",""
"SD1034","FDAB009","Inconsistent value for ARMCD","A value for Planned Arm Code (ARMCD) must have a unique value for Description of Planned Arm (ARM) with the domain.","Consistency",""
"SD1038","246","Non-unique value for TSSEQ variable within TSPARMCD","Sequence Number (TSSEQ) must have a unique value for a given value of Trial Summary Parameter Short Name (TSPARMCD) within the domain.","Consistency",""
"SD1039","46, 47","--CAT value is redundant with other variable values","Value of Category (--CAT) should not be identical to that in Domain Abbreviation (DOMAIN); Reported Term (--TERM); Name of Measurement, Test, or Examination (--TESTCD); Name of Treatment (--TRT); Standardized Coded Term (--DECOD); Body System or Organ Class (--BODSYS).","Consistency",""
"SD1040","44, 45","--SCAT value is redundant with other variable values","Value of Subcategory (--SCAT) should not be identical to that in Domain Abbreviation (DOMAIN); Reported Term (--TERM); Name of Measurement, Test, or Examination (--TESTCD); Name of Treatment (--TRT); Standardized Coded Term (--DECOD); Body System or Organ Class (--BODSYS).","Consistency",""
"SD1041","43","Values for --CAT and --SCAT are identical","Values of Category (--CAT) and Subcategory (--SCAT) variables should not be identical.","Consistency",""
"SD1042","","Time point for non-occurred event or intervention is provided","Value of Start Relative to Reference Period (--STRF) or End Relative to Reference Period (--ENRF) should not be populated when an event or intervention is marked as not occurred (--OCCUR='N').","Consistency",""
"SD1043","FDAB009","Inconsistent value for --TESTCD within --TEST","All values of Short Name of Measurement, Test or Examination (--TESTCD) should be the same for a given value of Name of Measurement, Test or Examination (--TEST).","Consistency",""
"SD1047","314","Both --DOSE and --DOSTXT values are populated","Only one of Dose (--DOSE) or Dose Description (--DOSTXT) variables must be populated on the same record.","Consistency",""
"SD1049","3","Invalid value for QLABEL","Qualifier Variable Label (QLABEL) value may have up to 40 characters.","Format",""
"SD1050","FDAB009, 213","Non-unique value for ETCD within ELEMENT","Element Code (ETCD) must have a unique value for a given value of Description of Element (ELEMENT) within the domain.","Consistency",""
"SD1051","","Unexpected value for IDVAR/IDVARVAL","Both Identifying Variable (IDVAR) and Identifying Variable Value (IDVARVAL) should not be populated when relating information to the Demographics (DM) domain.","Consistency",""
"SD1052","225","Non-unique value for TAETORD within ARMCD","Order of Element within Arm (TAETORD) must have a unique value for a given value of Planned Arm Code (ARMCD) within the domain.","Consistency",""
"SD1063","TCG 4.1.4.5, 300","Dataset is not present in define.xml","Datasets included in study data must be described in the data definition document (define.xml).","Metadata",""
"SD1064","FDAB009, 212","Duplicate ETCD value","The value of Element Code (ETCD) variable must be unique within Trial Elements (TE) domain.","Consistency",""
"SD1065","116, 121","Missing RDOMAIN value when IDVAR is populated","Value of Related Domain Abbreviation (RDOMAIN) variable must be populated when value of Identifying Variable (IDVAR) variable is populated.","Presence",""
"SD1066","286","IDVARVAL value is populated when RELTYPE values is populated","Variable Value (IDVARVAL) variable value should not be populated when Relationship Type (RELTYPE) variable value is populated.","Presence",""
"SD1067","286","USUBJID value is populated when RELTYPE values is populated","Unique Subject Identifier (USUBJID) variable value should not be populated when Relationship Type (RELTYPE) variable value is populated.","Presence",""
"SD1068","FDAB009, 212","Duplicate ELEMENT value","The value of Element (Description of Element) variable must be unique within Trial Elements (TE) domain.","Consistency",""
"SD1069","FDAB009","Inconsistent value for --PARM within --PARMCD","All values of a Parameter (--PARM) variables should be the same for a given value of a Parameter Short Name (--PARMCD) variables.","Consistency",""
"SD1070","FDAB009","Inconsistent value for --PARMCD within --PARM","All values of a Parameter Short Name (--PARMCD) variables should be the same for a given value of a Parameter (--PARM) variables.","Consistency",""
"SD1071","FDAB024","Dataset is greater than 5 GB in size","Datasets greater than 5 gigabytes (GB) in size should be split into smaller datasets no larger than 5 GB.","Metadata",""
"SD1072","286","Missing IDVAR value when RDOMAIN value is provided","Value of Identifying Variable (IDVAR) variable must be populated when Related Domain Abbreviation (RDOMAIN) variable value is provided, with the only exception of 'DM' value for RDOMAIN.","Consistency",""
"SD1073","266, 266.1, 267, 267.1, 268, 268.1, 269, 269.1","Variable prohibited for use in SDTM","Variables described in IG as inappropriate for usage must be not included in the dataset.","Metadata",""
"SD1076","265, 266, 267, 269, 270","Model Permissible variable added into standard domain","SDTM model variable may be added into standard domains according to its domain general class, if there are no restrictions on their usage specified in IG.","Metadata",""
"SD1079","48, 393","Variable is in wrong order within domain","The order of variables should reflect the order of the variables in the SDTM Model. Variables for the three general observation classes must be ordered with Identifiers first, followed by the Topic, Qualifier, and Timing variables. Within each role, variables must be ordered as shown in SDTM: Tables 2.2.1, 2.2.2, 2.2.3, 2.2.4, and 2.2.5.","Metadata",""
"SD1082","FDAB018, FDAB019","Variable length is too long for actual data","Variable length should be assigned based on actual stored data to minimize file size. Datasets should be re-sized to the maximum length of actual data used prior to splitting.","Metadata",""
"SD1083","FDAB016","Missing --DY variable when --DTC variable is present","Collection Study Day (--DY) variable should be included into dataset when Collection Study Date/Time (--DTC) variable is present.","Presence",""
"SD1084","FDAB016, 71, 72, 73, 74","--DY variable value is not populated","Collection Study Day (--DY) variable value should be populated when Collection Study Date/Time (--DTC) and Subject Reference Start Date/Time (RFSTDTC) variables values are provided, and both include complete date part.","Presence",""
"SD1085","71, 72, 73, 74","--DY variable value is imputed","Collection Study Day (--DY) variable value should not be imputed. It may be only populated when both Collection Study Date/Time (--DTC) and Subject Reference Start Date/Time (RFSTDTC) variables values are provided and both include complete date part.","Presence",""
"SD1086","71, 72, 73, 74","Incorrect value for --DY variable","Collection Study Day (--DY) variable value should be populated as defined by CDISC standards: --DY = (date portion of --DTC) - (date portion of RFSTDTC) +1 if --DTC is on or after RFSTDTC; --DY = (date portion of --DTC) - (date portion of RFSTDTC) if --DTC precedes RFSTDTC.","Presence",""
"SD1087","FDAB034","Missing --STDY variable when --STDTC variable is present","Study Day of Start (--STDY) variable should be included into dataset when Start Study Date/Time (--STDTC) variable is present.","Presence",""
"SD1088","71, 72, 73, 74","--STDY variable value is not populated","Study Day of Start (--STDY) variable value should be populated when Start Study Date (--STDTC) and Subject Reference Start Date/Time (RFSTDTC) variables values are provided, and both include complete date part.","Presence",""
"SD1089","71, 72, 73, 74","--STDY variable value is imputed","Study Day of Start (--STDY) variable value should not be imputed. It may be only populated when both Start Study Date/Time (--STDTC) and Subject Reference Start Date/Time (RFSTDTC) variables values are provided, and both include complete date part.","Presence",""
"SD1090","71, 72, 73, 74","Incorrect value for --STDY variable","Study Day of Start (--STDY) variable value should be populated as defined by CDISC standards: --STDY = (date portion of --STDTC) - (date portion of RFSTDTC) +1 if --STDTC is on or after RFSTDTC; --STDY = (date portion of --STDTC) - (date portion of RFSTDTC) if --STDTC precedes RFSTDTC.","Presence",""
"SD1091","FDAB034","Missing --ENDY variable when --ENDTC variable is present","Study Day of End (--ENDY) variable should be included into dataset when End Study Date/Time (--ENDTC) variable is present.","Presence",""
"SD1092","71, 72, 73, 74","--ENDY variable value is not populated","Study Day of End (--ENDY) variable value should be populated when End Study Date/Time (--ENDTC) and Subject Reference Start Date/Time (RFSTDTC) variables values are provided, and both include complete date part.","Presence",""
"SD1093","71, 72, 73, 74","--ENDY variable value is imputed","Study Day of End (--ENDY) variable value should not be imputed. It may be only populated when both End Study Date/Time (--ENDTC) and Subject Reference Start Date/Time (RFSTDTC) variables values are provided, and both include complete date part.","Presence",""
"SD1094","71, 72, 73, 74","Incorrect value for --ENDY variable","Study Day of End (--ENDY) variable value should be populated as defined by CDISC standards: --ENDY = (date portion of --ENDTC) - (date portion of RFSTDTC) +1 if --ENDTC is on or after RFSTDTC; --ENDY = (date portion of --ENDTC) - (date portion of RFSTDTC) if --ENDTC precedes RFSTDTC.","Presence",""
"SD1095","","Invalid dataset name for split domain","Split datasets must not have the name of original domain. E.g., lbhm.xpt is a valid name when lb.xpt is not a valid dataset name for split domain.","Consistency",""
"SD1096","FDAB018, 95","High risk of truncated value for --TERM variable","SAS v5 export format has a limitation on variables length up to 200 characters. If the collected value was more than 200 characters, then SUPPQUAL dataset should be used to store additional 200+ characters. Variable QNAM should have --TERM1, ---TERM2, etc. values for those records. Value splitting should be performed between words or numbers. See SDTM IG #4.1.5.3.2 for details. This risk-assessment check is triggered based on assumption that if original value was truncated, then the actual data value length is exactly 200 characters.","Format",""
"SD1098","","Missing --CAT value when --SCAT value is populated","Value for Category (--CAT) variable should be populated when value for Subcategory (--SCAT) variable is populated.","Presence",""
"SD1099","","Missing --CAT variable when --SCAT variable is present","Category (--CAT) variable should be included into dataset when Subcategory (--SCAT) variable is present.","Presence",""
"SD1101","","Missing --ENTPT variable when --ENRTPT variable is present","End Reference Time Point (--ENTPT) variable must be included into the domain when End Relative to Reference Time Point (--ENRTPT) variable is present.","Presence",""
"SD1102","","Missing --ENRTPT variable when --ENTPT variable is present","End Relative to Reference Time Point (--ENRTPT) variable must be included into the domain when End Relative Time Point (--ENTPT) variable is present.","Presence",""
"SD1103","","Missing --STTPT variable when --STRTPT variable is present","Start Reference Time Point (--STTPT) variable must be included into the domain when Start Relative to Reference Time Point (--STRTPT) variable is present.","Presence",""
"SD1104","","Missing --STRTPT variable when --STTPT variable is present","Start Relative to Reference Time Point (--STRTPT) variable must be included into the domain when Start Relative Time Point (--STTPT) variable is present.","Presence",""
"SD1109","FDAB065","Missing EX dataset","Exposure (EX) dataset should be included in every submission.","Presence",""
"SD1110","FDAB065","Missing DS dataset","Disposition (DS) dataset should be included in every submission.","Presence",""
"SD1111","","Missing SE dataset","Subject Elements (SE) dataset should be included in every submission.","Presence",""
"SD1112","FDAB011","Missing TA dataset","Trial Arms (TA) dataset should be included in every submission.","Presence",""
"SD1113","FDAB011","Missing TE dataset","Trial Elements (TE) dataset should be included in every submission.","Presence",""
"SD1115","eCTD 1734","Missing TS dataset","Trial Summary (TS) dataset must be included in every submission.","Presence","Reject"
"SD1116","FDAB018","Inconsistent variable length within split datasets","Split datasets should have matching variable lengths for future mergers. Datasets should be resized to the maximum length used prior to splitting.","Consistency",""
"SD1117","142, 150, 168, 169, 188, 191, 192, 195, 199, 206, 208, 355, 364, 370","Duplicate records","The structure of Findings class domains should be one record per Finding Result per subject. No Finding Result with the same Test Short Name (--TESTCD) and the same Qualifier variables at the same timepoint for the same Subject (USUBJID) are expected.","Consistency",""
"SD1118","291","Neither --STDTC, --DTC nor --STDY are populated","At least one value of three variables Start Date/Time (--STDTC), Collection Date/Time (--DTC) or Start Study Day (--STDY) should be populated.","Presence",""
"SD1119","","Inappropriate usage of variables in CO domain when comment is a child record of another domain","In the Comments (CO) domain, the following Identifier and Timing variables are Permissible and may be populated as appropriate when comments are not related to other domain records (i.e., RDOMAIN and IDVAR variable values are not populated): COGRPID, COREFID, COSPID, VISIT, VISITNUM, VISITDY, TAETORD, CODY, COTPT, COTPTNUM, COELTM, COTPTREF, CORFTDTC.","Structure",""
"SD1120","114","Comments in SUPPQUAL domain","Comments should be stored in Comments (CO) domain, rather than be put into Supplemental Qualifier (SUPP--) domains.","Presence",""
"SD1121","FDAB086","Neither AGE nor AGETXT values are populated","Value for Age (AGE) or Age Range (AGETXT) variables should be populated for all subjects. The only exception for SDTM is for Screen Failures (ARMCD=SCRNFAIL) and Not Assigned (ARMCD=NOTASSGN) subjects, or subjects with ARMCD=null. There are no exceptions for SEND.","Presence",""
"SD1122","FDAB031, 88","Missing value for --STRESN","Standardized Result in Numeric Format (--STRESN) variable value should be populated when Standardized Result in Character Format (--STRESC) variable value represents a numeric value.","Consistency",""
"SD1123","FDAB042, 86, 144, 145","--ORRES value is populated when --STAT is 'NOT DONE'","Value of Original Result (--ORRES) variable is expected to be missing when observation was not performed (Status (--STAT) is 'NOT DONE').","Consistency",""
"SD1124","FDAB042, 280","Missing value for --REASND when --STAT is 'NOT DONE'","Value of Reason Not Done (--REASND) variable should be populated when Status (--STAT) variable value is 'NOT DONE'.","Consistency",""
"SD1128","253","Invalid value for RELTYPE variable","Relationship Type (RELTYPE) variable values should be populated with terms 'ONE', 'MANY' when Related Records (RELREC) dataset is used to identify relationships between datasets.","Consistency",""
"SD1129","FDAB086","Neither AGE nor AGETXT variables are present","At least one of Age (AGE) or Age Text (AGETXT) variables should be included into Demographics (DM) domain.","Presence",""
"SD1130","FDAB009","Inconsistent value for QNAM within QLABEL","All values of Qualifier Variable Name (QNAM) should be the same for a given value of Qualifier Variable Label (QLABEL).","Consistency",""
"SD1131","FDAB026","Missing --STRESC value for Baseline record","A Standard Result value (--STRESC) is expected to be populated for Baseline records (--BLFL='Y').","Presence",""
"SD1135","FDAB036","Negative value of Study Day variable","Study Day variables (*DY) value should not be negative in Exposure (EX) and Exposure As Collected (EC) datasets.","Limit",""
"SD1149","14","Expected variable with missing value for all records","Expected variables may contain some null values, but in most cases will not contain null values for every record. When no data has been collected for an Expected variable, however, a null column must still be included in the dataset, and a comment must be included in the define.xml to state that data was not collected.","Presence",""
"SD1201","140","Duplicate records in domain","The structure of Events class domains should be one record per Event per subject. No Events with the same Collected Term (--TERM), Decoded Term (--DECOD), Category (--CAT), Subcategory (--SCAT), Occurrence (--OCCUR), Location (--LOC), Laterality (--LAT), Directionality (--DIR), Severity (--SEV), Toxicity Grade (--TOXGR), Visit Number (VISITNUM), Visit Day (VISITDY), and Start Reference Time Point (--STTPT) values for the same Subject (USUBJID) and the same Start Date (--STDTC) are expected.","Consistency",""
"SD1205","FDAB008","EXSTDTC date is before RFXSTDTC","Start Date/Time of Treatment (EXSTDTC) variable value must be greater than or equal to Date/Time of First Study Treatment (RFXSTDTC).","Limit",""
"SD1206","FDAB034","EXSTDTC date is after RFXENDTC","Start Date/Time of Treatment (EXSTDTC) variable value must be less than or equal to Date/Time of Last Study Treatment (RFXENDTC).","Limit",""
"SD1207","FDAB034","EXENDTC date is after RFXENDTC","End Date/Time of Treatment (EXENDTC) variable value must be less than or equal to Date/Time of Last Study Treatment (RFXENDTC).","Limit",""
"SD1208","FDAB034","RFXSTDTC date is after RFXENDTC","Date/Time of First Study Treatment (RFXSTDTC) variable value must be less than or equal to Date/Time of Last Study Treatment (RFXENDTC).","Limit",""
"SD1209","FDAB043","Missing value for RFXENDTC when RFXSTDTC is provided","Value for Date/Time of Last Study Treatment (RFXENDTC) variable must be populated when Date/Time of First Study Treatment (RFXSTDTC) variable value is provided.","Limit",""
"SD1212","FDAB031, 88","--STRESN does not equal --STRESC","Standardized Result in Numeric Format (--STRESN) variable value should be equal Standardized Result in Character Format (--STRESC) variable value when Standardized Result in Character Format (--STRESC) variable value represents a numeric value.","Consistency",""
"SD1228","TCG 4.1.4.5, 52","Variable value not found in user-defined codelist when value-level condition occurs","Variable value must be populated with terms from user-defined value level codelist as specified in define.xml file.","Terminology",""
"SD1229","TCG 4.1.4.5","Variable value is null when value-level condition occurs","Variable value must be populated when value level attribute Mandatory='Yes' as specified in define.xml file.","Terminology",""
"SD1230","TCG 4.1.4.5, 4","Variable datatype is not %Variable.@Clause.DataType% when value-level condition occurs","Value level datatype must match the datatype described in define.xml.","Format",""
"SD1231","TCG 4.1.4.5, 4","Variable value is longer than defined max length %Variable.@Clause.Length% when value-level condition occurs","Value level length must not exceed the length as specified define.xml.","Limit",""
"SD1244","207","Missing --TPT variable when --TPTNUM variable is present","Planned Time Point Name (--TPT) variable must be included into the domain when Planned Time Point Number (--TPTNUM) variable is present.","Presence",""
"SD1245","63","Missing --TPTREF variable when --RFTDTC variable is present","Time Point Reference (--TPTREF) variable must be included into the domain when Date/Time of Reference Point (--RFTDTC) variable is present.","Presence",""
"SD1246","84, 279","Missing --TPTREF variable when --ELTM variable is present","Time Point Reference (--TPTREF) variable must be included into the domain when Planned Elapsed Time from Time Point Ref (--ELTM) variable is present.","Presence",""
"SD1250","207","Missing --TPTNUM variable when --TPT variable is present","Planned Time Point Number (--TPTNUM) variable must be included into the domain when Planned Time Point Name (--TPT) variable is present.","Presence",""
"SD1251","","--VAMTU value is populated when --TRTV is null","Treatment Vehicle Amount Units (--VAMTU) value must be null when Treatment Vehicle Amount (--TRTV) value is null.","Consistency",""
"SD1259","25","Invalid value for SETCD exceeding 8 characters","The value of Set Code (SETCD) should be no more than 8 characters in length.","Format",""
"SD1266","125","ETCD equals 'UNPLAN' when SEUPDES is null","When the Description of Unplanned Element (SEUPDES) is not populated, the Element Code (ETCD) should not be equal to 'UNPLAN'.","Consistency",""
"SD1271","216","The combination of ELEMENT, TESTRL TEENRL, and TEDUR is not unique for each ETCD","The combination of Description of Element (ELEMENT), Rule for Start of Element (TESTRL), Rule for End of Element (TEENRL), and Planned Duration of Element (TEDUR) should be unique for each Element Code (ETCD).","Consistency",""
"SD1299","65","No timing variables are present in dataset","All domains based on the general observation classes (Interventions, Events, Findings) should have at least one Timing variable present.","Presence",""
"SD1320","85, 144, 145","Missing value for --STRESC when --STAT is null","Character Result/Finding in Std Format (--STRESC) value should not be null when Completion Status (--STAT) value is null.","Consistency",""
"SD1324","TCG 4.1.4.5, 6","Define.xml/dataset variable label mismatch","Variable Label in define.xml must match variable Label in dataset.","Metadata",""
"SD1325","TCG 4.1.4.5, 6","Define.xml/dataset description mismatch","Dataset Description in define.xml must match dataset Description.","Metadata",""
"SD1330","FDAB034","--DY is after --ENDY","Study Day of Observation (--DY) must be less or equal to Study Day of End of Observation (--ENDY).","Limit",""
"SD1331","FDAB034","--STDTC is after --DTC","Start Date/Time of Event, Exposure (--STDTC) must be less or equal to Date/Time of Collection(--DTC).","Limit",""
"SD1342","FDAB038","Missing value for RFXSTDTC when RFXENDTC is provided","Date/Time of First Study Treatment (RFXSTDTC) variable must be populated when Date/Time of Last Study Treatment (RFXENDTC)variable value is provided.","Limit",""
"SD1343","FDAB038","Missing value for RFXSTDTC when subject is treated","Date/Time of First Study Treatment (RFXSTDTC) variable must be populated when subject is treated (ACTARMCD is not 'SCRNFAIL', 'NOTTRT', 'NOTASSGN', or null).","Limit",""
"SD1348","295","Missing values for --STINT and --ENINT variables when --TEST references 'T1 to T2'","Planned Start of Assessment Interval (--STINT) and Planned End of Assessment Interval (--ENINT) variables should be present and populated when Name of Measurement, Test or Examination (--TEST) is over a time interval, 'T1 to T2', where 'T1' is represented by the value in --STINT and 'T2' is represented by the value in --ENINT.","Consistency",""
"SD1349","249","Inconsistent STUDYID","Study Identifier (STUDYID) values should be consistent for all subjects in the Demographics (DM) domain for one study.","Consistency",""
"SD1350","295","Missing value for --ENINT when --STINT is provided","Planned End of Assessment Interval (--ENINT) should not be null when Planned Start of Assessment Interval (--STINT) is populated.","Consistency",""
"SD1351","295","Missing value for --STINT when --ENINT is provided","Planned Start of Assessment Interval (--STINT) should not be null when Planned End of Assessment Interval (--ENINT) is populated.","Consistency",""
"SD1352","131","Duplicate records in domain","The structure of Interventions class domains should be one record per Intervention Episode per subject. No Interventions with the same Treatment (--TRT), Decoded Term (--DECOD), Mood (--MOOD), Category (--CAT), Subcategory (--SCAT), Route (--ROUTE), Location (--LOC) and Treatment Vehicle (--TRTV) values for the same Subject (USUBJID) with the same Start Date (--STDTC), Planned Time Point Name (--TPT), and Planned Time Point Number (--TPTNUM) are expected.","Consistency",""
"SD1353","94","--STRESC does not equal --ORRES when --STRESU is equal to --ORRESU","Standardized Result in Character Format (--STRESC) variable value should be equal to Result or Finding in Original Units (--ORRES) variable value when variable values are numeric and Standard Units (--STRESU) and Original Units (--ORRESU) are populated with the same units or are null.","Consistency",""
"SD1354","107","ARMCD value is not present in DM","Arm Code (ARMCD) values defined in Trial Arms (TA) should be assigned to at least one subject (USUBJID) in Demographics (DM).","Cross-reference",""
"SD1378","222","ETCD value does not present in TA","Element Code (ETCD) values defined in Trial Elements (TE) should be assigned for at least one Arm Code (ARMCD) in Trial Arms (Trial Arms).","Cross-reference",""
"SD1379","222","ETCD value does not present in SE","Element Code (ETCD) values defined in Trial Elements (TE) should be assigned to at least one subject (USUBJID) in Subject Elements (SE).","Cross-reference",""
"SD1446","FDAB034","Exposure start date is after the latest Disposition date","Start Date/Time of Treatment (EXSTDTC) should be less than or equal to the Start Date/Time of the latest Disposition Event (DSSTDTC). Investigator should provide a date of study discontinuation for each subject in Disposition (DS) domain. If the study is ongoing, Parameter Value (TSVAL) for the 'ONGOSIND/Ongoing Study Indicator' parameter should be set to 'Y' in the Trial Summary (TS) domain.","Consistency",""
"SD1448","FDAB031, 91, 194, 329","--STRESN is populated when --STRESC value is not numeric","Standardized Result in Numeric Format (--STRESN) variable value should be null when Standardized Result in Character Format (--STRESC) variable value does not represent a numeric value, (e.g., 'BLQ', value contains '<' or '>', etc.).","Consistency",""
"SD1450","FDAB044, 295","Missing --ENINT variable when --STINT variable is present","Planned End of Assessment Interval (--ENINT) variable must be included in the domain when Planned Start of Assessment Interval (--STINT) variable is present.","Presence",""
"SD1451","FDAB044, 295","Missing --STINT variable when --ENINT variable is present","Planned Start of Assessment Interval (--STINT) variable must be included in the domain when Planned End of Assessment Interval (--ENINT) variable is present.","Presence",""
"SD1452","FDAB040","Negative value for --VAMT","Non-missing Treatment Vehicle Amount (--VAMT) value must be greater than or equal to 0.","Limit",""
"SD1457","","Invalid value for Dataset Name","Dataset Name (DATASET) should follow limitations of SAS XPORT format v5. It should not exceed 8 characters and cannot contain characters other than letters in upper case, numbers, or underscores.","Format",""
"SD1474","","Invalid value for Variable Name","Variable Name should follow limitations of SAS XPORT format v5. It should not exceed 8 characters and cannot contain characters other than letters in upper case, numbers, or underscores. It cannot start with a number.","Format",""
"SD2017","288","Missing values for both --VAL and --VALNF","Value for Parameter Value (--VAL) variable must be populated. --VAL can only be null when Parameter Null Flavor (--VALNF) variable value is populated.","Presence",""
"SD2018","288","Both --VAL and --VALNF variables are populated","Value for Parameter Null Flavor (--VALNF) variable should be null when Parameter Value (--VAL) variable value can be populated.","Presence",""
"SD2019","FDAB053, 102","Invalid value for AGETXT","Age Range (AGETXT) variable values should be populated with 'number-number' format.","Format",""
"SD2020","FDAB086, 103","Both AGE and AGETXT variables values are populated","Age (AGE) and Age Range (AGETXT) variables should never both be populated for the same subject.","Consistency",""
"SD2021","104","Missing values for both AGE and AGETXT when AGEU is provided","Either of Age (AGE) or Age Range (AGETXT) variable values should be provided when Age Units (AGEU) are populated.","Consistency",""
"SD2022","104","Missing value for AGEU when AGE or AGETXT is populated","Age Units (AGEU) variable values should be provided when Age (AGE) or Age Range (AGETXT) variables values are populated.","Consistency",""
"SD2023","FDAB086, 103","AGE is not provided","Age (AGE) variable values should be provided when Date/Time of Birth (BRTHDTC) variable values are populated.","Consistency",""
"SD2024","36, 132","Redundant values for USUBJID and POOLID","Only one of the Unique Subject Identifier (USUBJID) or Pool Identifier (POOLID) variables values may be populated, not both.","Consistency",""
"SD2286","","Missing value for --VAMT when --VAMTU is populated","Treatment Vehicle Amount (--VAMT) should not be null when Treatment Vehicle Amount Units (--VAMTU) is populated.","Consistency",""
"SD9999","266, 266.1, 267, 267.1, 268, 268.1, 269, 269.1","Dataset class not recognized","The structure for custom dataset should be based on one of the general observation classes (EVENTS, FINDINGS, INTERVENTIONS) defined by the SDTM model.","Presence",""
"SE0007","FDAB011","Missing TX dataset","Trial Sets (TX) dataset should be included in every submission.","Presence",""
"SE0009","FDAB032","Missing values for both --DTC and --DY variables","Date/Time of Observation (--DTC) or Study Day of Observation (--DY) should be populated in the Findings observation class where data are usually collected at multiple study days.","Presence",""
"SE0011","FDAB037, 63","Missing value for --TPTREF when --RFTDTC is provided","Time Point Reference (--TPTREF) variable values should be provided when Date/Time of Reference Time Point (--RFTDTC) variable values are populated.","Consistency",""
"SE0055","4, 271, 359","SEND/dataset variable type mismatch","Variable Data Types in the dataset should match the variable data types described in SEND IG and SDTM Model.","Metadata",""
"SE0056","12","SEND Required variable not found","Variables described in SEND IG as Required must be included in the dataset.","Metadata",""
"SE0057","13","SEND Expected variable not found","Variables described in SEND IG as Expected should be included in the dataset.","Metadata",""
"SE0063","3, 6, 29, 276","SEND/dataset variable label mismatch","Variable Label in the dataset should match the variable label described in SEND IG. When creating a new domain Variable Labels could be adjusted as appropriate to properly convey the meaning in the context of the data being submitted.","Metadata",""
"SE0070","131.131.1, 410","No Exposure record found for subject","All Demographics (DM) subjects (USUBJID) participating in a study that includes investigational product should have at least one record in the Exposure (EX) domain, except for subjects where ARMCD is not populated.","Presence",""
"SE0083","FDAB081, 202, 203, 204, 205","TFDETECT is after DSSTDY","Time in Days to Detection of Tumor (TFDETECT) should be less than or equal to the Study Day of Disposition of the latest Disposition Event (DSSTDY).","Consistency",""
"SE1074","FDAB051","Variable which can be used only in SDTM","Variables designed only for SDTM human studies must be not included in the SEND dataset.","Metadata",""
"SE1125","FDAB047, 83","Inconsistent value for --ELTM within --TPT, --TPTREF, --CAT and/or --SCAT","All values of Planned Elapsed Time (--ELTM) variable should be the same for a given value of Planned Time Point Name (--TPT) variable, Time Point Reference (--TPTREF) and if present, Category and/or Subcategory (--CAT/--SCAT).","Consistency",""
"SE1126","FDAB047","Inconsistent value for --TPT within --TPTNUM, --NOMDY, --CAT and/or --SCAT","All values of Planned Time Point Name (--TPT) variable should be the same for a given value of Planned Time Point Number (--TPTNUM) variable. Uniqueness for these time points is determined by a combination of the Nominal Study Day for tabulations (--NOMDY), and, if present, Category and/or Subcategory (--CAT/--SCAT).","Consistency",""
"SE1127","FDAB047","Inconsistent value for --TPTNUM within --TPT, --NOMDY, --CAT and/or --SCAT","All values of Planned Time Point Number (--TPTNUM) variable should be the same for a given value of Planned Time Point Name (--TPT) variable. Uniqueness for these time points is determined by a combination of the Nominal Study Day for tabulations (--NOMDY), and, if present, Category and/or Subcategory (--CAT/--SCAT).","Consistency",""
"SE1148","FDAB008","EXSTDTC date is before EXPSTDTC in TS domain","Start Date/Time of Treatment (EXSTDTC) variable value must be greater than or equal to Date/Time of Experimental Start Date (EXPSTDTC) in Trial Summary (TS) domain.","Limit",""
"SE1149","FDAB008","EXSTDTC date is after EXPENDTC in TS domain","Start Date/Time of Treatment (EXSTDTC) variable value must be less than or equal to Date/Time of Experimental End Date (EXPENDTC) in Trial Summary (TS) domain.","Limit",""
"SE1150","FDAB008","EXENDTC date is before EXPSTDTC in TS domain","End Date/Time of Treatment (EXENDTC) variable value must be greater than or equal to Date/Time of Experimental Start Date (EXPSTDTC) in Trial Summary (TS) domain.","Limit",""
"SE1151","FDAB008","EXENDTC date is after EXPENDTC in TS domain","End Date/Time of Treatment (EXENDTC) variable value must be less than or equal to Date/Time of Experimental End Date (EXPENDTC) in Trial Summary (TS) domain.","Limit",""
"SE1152","FDAB064","EXSTDTC date is before RFSTDTC","Start Date/Time of Treatment (EXSTDTC) variable value must be greater than or equal to Subject Reference Start Date/Time (RFSTDTC).","Limit",""
"SE1153","FDAB046","Missing PLANMSUB Trial Set Parameter within SETCD","'Planned Number of Male Subjects' (PLANMSUB) records should be populated for each SETCD in Trial Sets (TX) domain.","Presence",""
"SE1154","FDAB046","Missing PLANFSUB Trial Set Parameter within SETCD","'Planned Number of Female Subjects' (PLANFSUB) records should be populated for each SETCD in Trial Sets (TX) domain.","Presence",""
"SE2201","FDAB011, 250","Missing both AGE and AGETXT Trial Summary Parameters","'Age' (AGE) or 'Age Text' (AGETXT) records should be populated in Trial Summary (TS) domain.","Presence",""
"SE2202","FDAB011, 247","Missing AGEU Trial Summary Parameter","'Age Unit' (AGEU) record should be populated in Trial Summary (TS) domain.","Presence",""
"SE2203","FDAB011, 247","Missing SDESIGN Trial Summary Parameter","'Study Design' (SDESIGN) record should be populated in Trial Summary (TS) domain.","Presence",""
"SE2204","FDAB011, 247","Missing DOSDUR Trial Summary Parameter","'Dosing Duration' (DOSDUR) record should be populated in Trial Summary (TS) domain.","Presence",""
"SE2205","FDAB011, 247","Missing EXPENDTC Trial Summary Parameter","'Experimental End Date' (EXPENDTC) record should be populated in Trial Summary (TS) domain.","Presence",""
"SE2206","FDAB011, 247","Missing EXPSTDTC Trial Summary Parameter","'Experimental Start Date' (EXPSTDTC) record should be populated in Trial Summary (TS) domain.","Presence",""
"SE2207","FDAB011, 247","Missing GLPTYP Trial Summary Parameter","'Good Laboratory Practice Type' (GLPTYP) record should be populated in Trial Summary (TS) domain.","Presence",""
"SE2208","FDAB011, 247","Missing ROUTE Trial Summary Parameter","'Route of Administration' (ROUTE) record should be populated in Trial Summary (TS) domain.","Presence",""
"SE2209","FDAB011, 247","Missing SNDIGVER Trial Summary Parameter","'SEND Implementation Guide Version' (SNDIGVER) record should be populated in Trial Summary (TS) domain.","Presence",""
"SE2210","FDAB011, 247","Missing SNDCTVER Trial Summary Parameter","'SEND Control Terminology Version' (SNDCTVER) record should be populated in Trial Summary (TS) domain.","Presence",""
"SE2211","FDAB011, 105, 247","Missing SPECIES Trial Summary Parameter","'Species' (SPECIES) record should be populated in Trial Summary (TS) domain.","Presence",""
"SE2212","FDAB011, 247","Missing SPLRNAM Trial Summary Parameter","'Test Subject Supplier' (SPLRNAM) record should be populated in Trial Summary (TS) domain.","Presence",""
"SE2213","FDAB011, 247","Missing SPREFID Trial Summary Parameter","'Sponsor's Reference ID' (SPREFID) record should be populated in Trial Summary (TS) domain.","Presence",""
"SE2214","FDAB011, 247","Missing SSPONSOR Trial Summary Parameter","'Sponsoring Organization' (SSPONSOR) record should be populated in Trial Summary (TS) domain.","Presence",""
"SE2215","FDAB011, 247","Missing STCAT Trial Summary Parameter","'Study Category' (STCAT) record should be populated in Trial Summary (TS) domain.","Presence",""
"SE2216","FDAB011, 247","Missing STDIR Trial Summary Parameter","'Study Director' (STDIR) record should be populated in Trial Summary (TS) domain.","Presence",""
"SE2217","FDAB011, 106, 247","Missing STRAIN Trial Summary Parameter","'Strain/Substrain' (STRAIN) record should be populated in Trial Summary (TS) domain.","Presence",""
"SE2218","eCTD 1734, FDAB011, 247","Missing STSTDTC Trial Summary Parameter","'Study Start Date' (STSTDTC) record should be populated in Trial Summary (TS) domain.","Presence","Reject"
"SE2219","FDAB011, 247","Missing STITLE Trial Summary Parameter","'Study Title' (STITLE) record should be populated in Trial Summary (TS) domain.","Presence",""
"SE2220","FDAB011, 247","Missing SSTYP Trial Summary Parameter","'Study Type' (SSTYP) record should be populated in Trial Summary (TS) domain.","Presence",""
"SE2221","FDAB011, 247","Missing TRT Trial Summary Parameter","'Investigational Therapy or Treatment' (TRT) record should be populated in Trial Summary (TS) domain.","Presence",""
"SE2222","FDAB011, 247","Missing TFCNTRY Trial Summary Parameter","'Test Facility Country' (TFCNTRY) record should be populated in Trial Summary (TS) domain.","Presence",""
"SE2223","FDAB011, 247","Missing TSTFLOC Trial Summary Parameter","'Test Facility Location' (TSTFLOC) record should be populated in Trial Summary (TS) domain.","Presence",""
"SE2224","FDAB011, 247","Missing TSTFNAM Trial Summary Parameter","'Test Facility Name' (TSTFNAM) record should be populated in Trial Summary (TS) domain.","Presence",""
"SE2225","FDAB011, 247","Missing TRMSAC Trial Summary Parameter","'Time to Terminal Sacrifice' (TRMSAC) record should be populated in Trial Summary (TS) domain.","Presence",""
"SE2226","FDAB011, 247","Missing TRTCAS Trial Summary Parameter","'Primary Treatment CAS Registry Number' (TRTCAS) record should be populated in Trial Summary (TS) domain.","Presence",""
"SE2227","FDAB011, 247","Missing TRTV Trial Summary Parameter","'Treatment Vehicle' (TRTV) record should be populated in Trial Summary (TS) domain.","Presence",""
"SE2228","FDAB082, 397","Missing --RESCAT value when --STRESC is not 'NORMAL', 'UNREMARKABLE', or null (--STAT = 'NOT DONE')","Result Category (--RESCAT) should be populated for all abnormal findings, i.e. when Result or Finding in Standard Format (--STRESC) has a value other than 'NORMAL', 'UNREMARKABLE' or missing (Completion Status (--STAT) = 'NOT DONE').","Consistency",""
"SE2229","FDAB085","--STRESC/--RESCAT mismatch when --RESCAT = 'BENIGN', 'MALIGNANT' or 'UNDETERMINED'","Result or Finding in Standard Format (--STRESC) values from (NEOPLASM) CT codelist should align with the malignancy status in Result Category (--RESCAT) when --RESCAT = 'BENIGN', 'MALIGNANT' or 'UNDETERMINED'.","Consistency",""
"SE2230","FDAB009, 237, 238","Inconsistent value for SET within SETCD","All values of Set Description (SET) should be the same for a given value of Set Code (SETCD).","Consistency",""
"SE2231","FDAB009, 233, 237","Inconsistent value for SETCD within SET","All values of Set Code (SETCD) should be the same for a given value of Set Description (SET).","Consistency",""
"SE2232","FDAB011","Invalid TXVAL for ARMCD","Planned Arm Code (ARMCD) values in TXVAL (TXPARMCD = 'ARMCD') should match entries in the Trial Arms (TA) dataset.","Cross-reference",""
"SE2233","FDAB082, 375","--RESCAT should not be populated when --STRESC is 'NORMAL', 'UNREMARKABLE', or null (--STAT = 'NOT DONE')","Result Category (--RESCAT) should not be populated when Result or Finding in Standard Format (--STRESC) is 'NORMAL', 'UNREMARKABLE' or missing (Completion Status (--STAT) = 'NOT DONE').","Consistency",""
"SE2234","92","No record for --CALCN when --STRESC is below LOQ","A numeric interpretation for calculations record (QNAM.PCCALCN) should be included in SUPPPC when the Result or Finding in Standard Format (PCSTRESC) is below the limit of quantification ('BLQ' or 'BQL') per guidance in the FDA Technical Conformance Guide.","Presence",""
"SE2235","FDAB011, 341","Multiple SNDIGVER records","Trial Summary (TS) domain must contain only one record for the 'SNDIGVER' parameter.","Consistency",""
"SE2236","FDAB011, 343","Multiple SNDCTVER records","Trial Summary (TS) domain must contain only one record for the 'SNDCTVER' parameter.","Consistency",""
"SE2237","FDAB011","Value from NULLFLAV codelist is populated in TSVAL","Values from the Null Flavor Reason (NULLFLAV) codelist should be populated in Parameter Null Flavor (TSVALNF) rather than Parameter Value (TSVAL) in the Trial Summary (TS) domain when using SENDIG v3.1 and later.","Terminology",""
"SE2238","FDAB011","Value from NY codelist is populated in TSVAL when TSPARMCD = 'GLPTYP'","Values from the No Yes Response (NY) codelist should not be populated in Parameter Value (TSVAL) when TSPARMCD = 'GLPTYP' (Good Laboratory Practice Type) in the Trial Summary (TS) domain. The NY codelist should be used to populate TSVAL when TSPARMCD = 'GLPFL' (GLP Flag) and not when TSPARMCD = 'GLPTYP'.","Terminology",""
"SE2239","161","--RESCAT value is redundant with other variable values","Value of Result Category (--RESCAT) should not be identical to that in Test Name (--TEST); Category (--CAT); and/or Subcategory (--SCAT).","Consistency",""
"SE2240","","--ENDTC is after the latest Disposition date","End Date/Time of Observation (--ENDTC) for an animal's live-phase findings should be less than or equal to the Start Date/Time of the latest Disposition Event (DSSTDTC).","Consistency",""
"SE2241","","--DTC is after the latest Disposition date","Date/Time of Observation (--DTC) for an animal's live-phase findings should be less than or equal to the Start Date/Time of the latest Disposition Event (DSSTDTC).","Consistency",""
"SE2242","177","Missing value for --SPEC when --TESTCD equals 'GROSPATH'","Specimen Material Type (MASPEC) is required to be populated when Macroscopic Examination Short Name (MATESTCD)/Macroscopic Examination Name (MATEST) = 'GROSPATH'/'Gross Pathological Observation'.","Presence",""
"SE2243","178","--SPEC variable is populated when --TESTCD equals 'CLSFUP'","Specimen Material Type (MASPEC) should be null when Macroscopic Examination Short Name (MATESTCD)/Macroscopic Examination Name (MATEST) = 'CLSFUP'/'Clinical Signs Follow-up'.","Presence",""
"SE2244","159, 394","--STRESC is the same as --ORRES when --STRESC is not 'NORMAL' or 'UNREMARKABLE' and a Qualifier variable is populated","Result or Finding in Standard Format (--STRESC) should be populated with the base observation without modifiers. Other relevant components of the Result or Finding in Original Units (--ORRES) finding must be parsed into one or more Qualifier variables and the Supplemental Qualifier --RESMOD.","Consistency",""
"SE2245","","Missing TSNAM Trial Summary Parameter when TSCNTRY and/or TSLOC Parameters are provided","'Test Site Name' (TSNAM) record should be provided in the Trial Summary (TS) domain when records for 'Test Site Country' (TSCNTRY) and/or 'Test Site Location' (TSLOC) are present.","Presence",""
"SE2265","320","--DTC is before the latest Disposition date","Date/Time of Collection (--DTC) variable value must be greater than or equal to Start Date/Time of latest Disposition (DSSTDTC) for post-mortem Findings domains: Death Diagnosis and Details (DD), Macroscopic Findings (MA), Microscopic Findings (MI), Organ Measurements (OM), Tumor Findings (TF).","Consistency",""
"SE2266","","Negative value for --STRESN when --EXCLFL is not populated","The value of Standardized Result in Numeric Format (--STRESN) cannot be less than 0 when the record is not excluded from analysis, i.e., Exclude from Statistics (--EXCLFL) is not 'Y'. This applies for the following domains in SEND: BW, FM, FW, LB, OM, PC, PY, RE, VS.","Limit",""
"SE2267","FDAB011","Missing STRPSTAT Trial Summary Parameter","'Study Report Status' (STRPSTAT) record should be populated in Trial Summary (TS) domain.","Presence",""
"SE2268","167","No record in DD domain for unscheduled death","For subjects that have a disposition status in the Disposition (DS) domain that indicates an unscheduled death, the cause of death should be captured in the Death Diagnosis and Details (DD) domain. Standardized Disposition Term (DSDECOD) values for unscheduled death include ACCIDENTAL DEATH, FOUND DEAD, MISSING, MORIBUND SACRIFICE, or NON-MORIBUND SACRIFICE. For SEND v3.1 and later, Unscheduled Flag (DSUSCHFL) should also be set to 'Y'.","Cross-reference",""
"SE2269","303","Unscheduled flag is populated for scheduled death","For subjects that have a disposition status in the Disposition (DS) domain that indicates a scheduled death, the Unscheduled Flag (DSUSCHFL) should not be populated. Standardized Disposition Term (DSDECOD) values for scheduled death include: INTERIM SACRIFICE, TERMINAL SACRIFICE, RECOVERY SACRIFICE, and REMOVED FROM STUDY ALIVE.","Consistency",""
"SE2270","320","--DY value does not equal DSSTDY value","For a specimen collected or observed post mortem, the Study Day (--DY) variable value should be the same as the Study Day of Disposition (DSSTDY) variable value in the Disposition (DS) domain.","Consistency",""
"SE2271","320","--DY value when BWTESTCD = 'TERMBW' does not equal DSSTDY value","For terminal body weight measurements (BWTESTCD/BWTEST = 'TERMBW'/'Terminal Body Weight'), the Study Day Animal Weighed (BWDY) variable value should be the same as the Study Day of Disposition (DSSTDY) variable value in the Disposition (DS) domain.","Consistency",""
"SE2272","FDAB011, 342","Multiple SDESIGN records","Trial Summary (TS) domain must contain only one record for the 'SDESIGN' parameter.","Consistency",""
"SE2273","FDAB011, 344","Multiple STCAT records","Trial Summary (TS) domain must contain only one record for the 'STCAT' parameter.","Consistency",""
"SE2274","FDAB011, 345","Multiple SSTYP records","Trial Summary (TS) domain must contain only one record for the 'SSTYP' parameter.","Consistency",""
"SE2275","FDAB011, 346","Multiple STDIR records","Trial Summary (TS) domain must contain only one record for the 'STDIR' parameter.","Consistency",""
"SE2276","320","--DTC does not equal DSSTDTC","Date/Time of Collection (--DTC) variable value must be equal to Start Date/Time of latest Disposition (DSSTDTC) for post-mortem findings in the Macroscopic Findings (MA), Microscopic Findings (MI), and Tumor Findings (TF) domains.","Consistency",""
"SE2277","95, 95.1, 119, 281","variable length exceeds 200 characters","Due to SAS v5 transport file limitations, variables cannot have a length that is greater than 200 characters. For SEND data, this results in loading errors into regulatory nonclinical review tools. The SENDIG should be followed in how to split long character strings appropriately.","Limit",""
"SE2278","331","Missing value for PCLLOQ when PCSTRESC is 'BLQ' or 'BQL'","When a measurement is identified as being below a limit of quantification threshold in Standardized Result in Character Format (PCSTRESC), Lower Limit of Quantitation (PCLLOQ) should be populated.","Presence",""
"SE2279","325","Duplicate value for PCTPTREF for the same USUBJID (or POOLID) when PCNOMDY value is different","Time Point Reference (PCTPTREF) must identify a unique dose. Ambiguous references such as 'Most recent dose' should be avoided; it is recommended that Time Point Reference (PCTPTREF) include both the Nominal Study Day for Tabulations (PCNOMDY) and the time point description in order (e.g., “Day 1, Dose 1” and “Day 1, Dose 2” for twice daily dosing).","Consistency",""
"SE2280","327","PCELTM is not 'PT0H' for pre-dose sampling","Specimen concentrations (e.g., plasma) used to calculate a time concentration profile with a pre-dose sample should have Planned Elapsed Time from Time Point Ref (PCELTM) populated with 'PT0H'. A negative elapsed time would lead to an incorrect area under the curve.","Consistency",""
"SE2281","FDAB047, 326, 348","Missing values for required timing variables: --NOMDY, --ELTM, and --TPTREF","For PC records contributing to a time concentration profile, PCNOMDY, PCELTM and PCTPTREF must be present and populated. These are the required timing variables for identification of the day on which group summaries (Group Means and Incidences) are calculated for pharmacokinetic concentrations.","Presence",""
"SE2282","262, 262.1","Duplicate USUBJID within a POOLID","There should be only one record per subject (USUBJID) within Pool Identifier (POOLID) in the Pool Definition (POOLDEF) domain.","Consistency",""
"SE2283","303","Unscheduled flag is not populated for unscheduled death","For subjects that have a disposition status in the Disposition (DS) domain that indicates an unscheduled death, the Unscheduled Flag (DSUSCHFL) should be set to 'Y'. Standardized Disposition Term (DSDECOD) values for unscheduled death include: ACCIDENTAL DEATH, FOUND DEAD, MISSING, MORIBUND SACRIFICE, or NON-MORIBUND SACRIFICE.","Consistency",""
"SE2284","285, 395","--STRESC value is not 'UNREMARKABLE' when no findings are present","If the examination was completed and there were no findings populated in Result or Finding as Collected (--ORRES), the value must be 'UNREMARKABLE' in Standardized Result in Character Format (--STRESC) when using SEND v3.1 or later.","Terminology",""
"SE2285","158, 158.1","--STRESC value is not 'NORMAL' when no findings are present","If the examination was completed and there were no findings populated in Result or Finding as Collected (--ORRES), the value must be 'NORMAL' in Standardized Result in Character Format (--STRESC) when using SEND v3.0 (MA, MI, CL) or SEND v3.1 or later (CL only).","Terminology",""
"SE2286","167","Record present in DD domain for scheduled death","For subjects that have a disposition status in the Disposition (DS) domain that indicates a scheduled death, no records should be present in the Death Diagnosis and Details (DD) domain. Standardized Disposition Term (DSDECOD) values for scheduled death include: INTERIM SACRIFICE, TERMINAL SACRIFICE, RECOVERY SACRIFICE, and REMOVED FROM STUDY ALIVE.","Cross-reference",""
"SE2300","FDAB046, 236, 239","Missing ARMCD Trial Set Parameter within SETCD","'Arm Code' (ARMCD) records should be populated for each SETCD in Trial Sets (TX) domain.","Presence",""
"SE2301","FDAB046, 234, 239","Missing SPGRPCD Trial Set Parameter within SETCD","'Sponsor-Defined Group Code' (SPGRPCD) records should be populated for each SETCD in Trial Sets (TX) domain.","Presence",""
"SE2302","FDAB046, 239","Missing GRPLBL Trial Set Parameter within SETCD","'Group Label' (GRPLBL) records should be populated for each SETCD in Trial Sets (TX) domain.","Presence",""
"SE2303","FDAB046, 239","Missing TRTDOS Trial Set Parameter within SETCD","'Dose Level' (TRTDOS) records should be populated for each SETCD in Trial Sets (TX) domain.","Presence",""
"SE2304","FDAB046, 239","Missing TRTDOSU Trial Set Parameter within SETCD","'Dose Units' (TRTDOSU) records should be populated for each SETCD in Trial Sets (TX) domain.","Presence",""
"SE2305","FDAB047","Missing values for all required set(s) of timing variables: VISITDY, --STDY, or --NOMDY","At least one of these variables or sets of variables must be present and populated in DS: (VISITDY, DSSTDY, or DSNOMDY). These are the required timing variables for identification of the day on which group summaries (Group Means and Incidences) are calculated for post mortem data.","Presence",""
"SE2306","FDAB047","Missing values for all required set(s) of timing variables: VISITDY, --DY or --NOMDY","At least one of the these variables or sets of variables should be populated: VISITDY, --DY, or --NOMDY. These are the Required timing variables for identification of the day on which group summaries (Group Means and Incidences) are calculated.","Presence",""
"SE2307","FDAB047, 151, 152","Missing values for all required timing variables: --DY & --ENDY","These variables must be populated: --DY and --ENDY. These are the required timing variables for identification of the day on which group summaries (Group Means and Incidences) are calculated for data associated with a time interval.","Presence",""
"SE2310","FDAB042","Value for --STRESC is populated when --STAT is 'NOT DONE'","Status (--STAT) should be null when Standardized Result in Character Format (--STRESC ) is provided.","Consistency",""
"SE2311","FDAB049, 113","Invalid SETCD","Set Code (SETCD) values should match entries in the Trial Sets (TX) dataset.","Cross-reference",""
"SE2312","FDAB054, 139","Invalid POOLID","Pool ID (POOLID) values should match entries in the Pool Definition (POOLDEF) dataset.","Cross-reference",""
"SE2316","FDAB046, 242","No Trial Set with TCNTRL Parameter","'Control Type' (TCNTRL) record should be populated in Trial Sets (TX) domain. (There must be a record with TXPARMCD = TCNTRL within a set if the study has a control).","Presence",""
"SE2317","FDAB050, 230, 235","Duplicate TXPARMCD within a SETCD","The value of Parameter Code (TXPARMCD) variable must be unique for each Trial Set (SETCD) within the Trial Sets (TX) domain.","Consistency",""
"SE2318","FDAB047","Missing values for all required set(s) of timing variables: VISITDY or --NOMDY","At least one of these variables or sets of variables must be present and populated in PP: VISITDY or PPNOMDY. These are the required timing variables for identification of the day on which group summaries (Group Means and Incidences) are calculated for pharmacokinetic parameters.","Presence",""
"SE2319","TCG 4.1.4.1, 147","No baseline flag record in Domain for subject","All subjects should have at least one baseline observation (--BLFL = 'Y') in EG, LB, and VS domains.","Presence",""
"SE2320","FDAB011, 248","Invalid --VAL value for SLENGTH","TSVAL/TXVAL value must be either ISO 8601 format for time period (e.g., P80Y) or null when TSPARMCD/TXPARMCD='SLENGTH'.","Format",""
"SE2322","FDAB011","Invalid --VAL value for SPLANSUB","TSVAL/TXVAL must be numeric when TSPARMCD/TXPARMCD = 'SPLANSUB'.","Format",""
"SE2323","FDAB011","Invalid --VAL value for PLANFSUB","TSVAL/TXVAL must be numeric when TSPARMCD/TXPARMCD = 'PLANFSUB'.","Format",""
"SE2324","FDAB011","Invalid --VAL value for PLANMSUB","TSVAL/TXVAL must be numeric when TSPARMCD/TXPARMCD = 'PLANMSUB'.","Format",""
"SE2325","eCTD 1734, FDAB011, 248","Invalid TSVAL value for STSTDTC","TSVAL variable value must be in ISO 8601 format when TSPARMCD='STSTDTC'.","Format","Reject"
"SE2325A","eCTD 1734, FDAB011, 248","Incomplete date for study start date","TSVAL variable value must be in ISO 8601 format and include at least full date, when TSPARMCD='STSTDTC'.","Format","Reject"
"SE2326","FDAB011, 248","Invalid TSVAL value for STENDTC","TSVAL variable value must be in ISO 8601 format when TSPARMCD='STENDTC'.","Format",""
"SE2327","FDAB011","Missing SPLANSUB Trial Summary Parameter","'Planned Number of Subjects' (SPLANSUB) record should be populated in Trial Summary (TS) domain.","Presence",""
"SE2328","FDAB011","Missing STENDTC Trial Summary Parameter","'Study End Date' (STENDTC) record should be populated in Trial Summary (TS) domain.","Presence",""
"SE2329","FDAB011","Missing DOSENDTC Trial Summary Parameter","'End Date/Time of Dose Interval' (DOSENDTC) record should be populated in Trial Summary (TS) domain.","Presence",""
"SE2330","FDAB011","Missing DOSSTDTC Trial Summary Parameter","'Start Date/Time of Dose Interval' (DOSSTDTC) record should be populated in Trial Summary (TS) domain.","Presence",""
"SE2331","FDAB011","Missing GLPFL Trial Summary Parameter","'Good Laboratory Practice Flag' (GLPFL) record should be populated in Trial Summary (TS) domain.","Presence",""
"SE2332","FDAB011","Missing PCLASS Trial Summary Parameter","'Pharmacologic Class' (PCLASS) record should be populated in Trial Summary (TS) domain.","Presence",""
"SE2333","FDAB011","Missing PDOSFRQ Trial Summary Parameter","'Planned Dose Frequency' (PDOSFRQ) record should be populated in Trial Summary (TS) domain.","Presence",""
"SE2334","FDAB011","Missing SEXPOP Trial Summary Parameter","'Sex of Participants' (SEXPOP) record must be populated in Trial Summary (TS) domain.","Presence",""
"SE2335","FDAB011","Missing TRTUNII Trial Summary Parameter","'Primary Treatment Unique Ingredient ID' (TRTUNII) record must be populated in Trial Summary (TS) domain.","Presence",""
"SE2336","FDAB011, 243, 248","Invalid --VAL value for DOSENDTC","TSVAL/TXVAL variable value must be in ISO 8601 format when TSPARMCD/TXPARMCD='DOSENDTC'.","Format",""
"SE2337","FDAB011, 243, 248","Invalid --VAL value for DOSSTDTC","TSVAL/TXVAL variable value must be in ISO 8601 format when TSPARMCD/TXPARMCD='DOSSTDTC'.","Format",""
"SE2340","FDAB011, 243, 248","Invalid --VAL value for EXPSTDTC","TSVAL/TXVAL variable value must be in ISO 8601 format when TSPARMCD/TXPARMCD = 'EXPSTDTC'.","Format",""
"SE2341","FDAB011, 243, 248","Invalid --VAL value for EXPENDTC","TSVAL/TXVAL variable value must be in ISO 8601 format when TSPARMCD/TXPARMCD = 'EXPENDTC'.","Format",""
"SE2342","FDAB011, 248","Invalid --VAL value for DOSDUR","TSVAL/TXVAL value must be either ISO 8601 format for time period (e.g., P80Y) or null when TSPARMCD/TXPARMCD='DOSDUR'.","Format",""
"SE2343","FDAB011, 248","Invalid --VAL value for INTSAC","TSVAL/TXVAL value must be either ISO 8601 format for time period (e.g., P80Y) or null when TSPARMCD/TXPARMCD='INTSAC'.","Format",""
"SE2344","FDAB011, 248","Invalid --VAL value for TRMSAC","TSVAL/TXVAL value must be either ISO 8601 format for time period (e.g., P80Y) or null when TSPARMCD/TXPARMCD='TRMSAC'.","Format",""
"SE2345","FDAB011, 248","Invalid --VAL value for RECSAC","TSVAL/TXVAL value must be either ISO 8601 format for time period (e.g., P80Y) or null when TSPARMCD/TXPARMCD='RECSAC'.","Format",""
"SE2346","FDAB011","Invalid --VAL value for AGE","TSVAL/TXVAL must be numeric when TSPARMCD/TXPARMCD = 'AGE'.","Format",""
"SE2347","FDAB049","SETCD value does not present in DM","Set Code (SETCD) values defined in Trial Sets (TX) should be assigned to at least one subject (USUBJID) in Demographics (DM).","Cross-reference",""
"SE2348","231","Non-unique value for TXSEQ variable within TX domain","Sequence Number (TXSEQ) should be unique within the entire Trial Sets (TX) dataset because there is no Unique Subject Identifier (USUBJID) variable.","Consistency",""
"SE2349","183, 201","Invalid value for --DTHREL","Relationship to Death (--DTHREL) describes the relationship of a particular finding to the death of a subject. Allowed values for this variable include: 'Y' (Caused death), 'N' (Did not cause death), or 'U' (Unknown).","Terminology",""
"SE2350","193, 331","Missing value for --STRESU when --LLOQ is provided","Lower Limit of Quantitation (--LLOQ) should be presented using the same units as those presented in Standard Units (--STRESU). When --LLOQ is provided, --STRESU should also be populated.","Presence",""
"SE2351","127","SEENDTC is after the latest Disposition date","End Date/Time of Element (SEENDTC) should be less than or equal to the Start Date/Time of the latest Disposition Event (DSSTDTC).","Consistency",""
"SE2352","134","EXLOT is populated when EXDOSE equals 0 or is null","If Name of Actual Treatment (EXTRT) is not administered, (i.e., Dose per Administration (EXDOSE) is equal to zero or is not provided), then Lot Number (EXLOT) should be null.","Consistency",""
"SE2353","134","EXLOT is null when EXDOSE is provided","If Name of Actual Treatment (EXTRT) is administered, (i.e., Dose per Administration (EXDOSE) is greater than zero), then Lot Number (EXLOT) should also be provided.","Consistency",""
"SE2354","149","Missing value for --EXCLFL when --REASEX is provided","Exclude from Statistics (--EXCLFL) should be set to 'Y' when Reason for Exclusion from Statistics (--REASEX) is populated.","Consistency",""
"SE2355","244","Invalid --VAL value for ENVTEMPU","--VAL for ENVTEMPU record is the unit for the environmental temperature. Only values of 'C' or 'F' are acceptable.","Terminology",""
"SE2357","","Duplicate SESTDTC within USUBJID","In the Subject Elements (SE) domain, for each subject, each Element should have a different start date.","Consistency",""
"SE2360","FDAB043","Missing value for EXSTDY, when EXENDY is provided","Study Day of Start of Treatment (EXSTDY) variable must be populated, when Study Day of End of Treatment (EXENDY) variable value is provided.","Consistency",""
"SE2366","240.1","Invalid value for TXVAL for TRTDOS","TXVAL value must be a number, a semicolon-delimited string containing numbers without spaces, or 'SEE PROTOCOL' when TXPARMCD='TRTDOS'","Format",""
"SE2367","158, 158.1, 285","--SEV should not be populated, when --STRESC is 'NORMAL', 'UNREMARKABLE', or null (--STAT = 'NOT DONE')","Severity (--SEV) should not be populated when Result or Finding in Standard Format (--STRESC) is 'NORMAL', 'UNREMARKABLE' or missing (Completion Status (--STAT) = 'NOT DONE').","Consistency",""
"SE2368","158, 158.1, 285","--DTHREL should not be populated, when --STRESC is 'NORMAL', 'UNREMARKABLE', or null (--STAT = 'NOT DONE')","Relationship to Death (--DTHREL) should not be populated when Result or Finding in Standard Format (--STRESC) is 'NORMAL', 'UNREMARKABLE' or missing (Completion Status (--STAT) = 'NOT DONE').","Consistency",""
"SE2369","158.1, 285","--CHRON should not be populated, when --STRESC is 'NORMAL', 'UNREMARKABLE', or null (--STAT = 'NOT DONE')","Chronicity of Finding (--CHRON) should not be populated when Result or Finding in Standard Format (--STRESC) is 'NORMAL', 'UNREMARKABLE' or missing (Completion Status (--STAT) = 'NOT DONE').","Consistency",""
"SE2370","158.1, 285","--DISTR should not be populated, when --STRESC is 'NORMAL', 'UNREMARKABLE', or null (--STAT = 'NOT DONE')","Distribution Pattern of Finding (--DISTR) should not be populated when Result or Finding in Standard Format (--STRESC) is 'NORMAL', 'UNREMARKABLE' or missing (Completion Status (--STAT) = 'NOT DONE').","Consistency",""
"SE2371","FDAB064","RFSTDTC does not equal the first treatment date (EXSTDTC)","Reference Start Date (RFSTDTC) variable value must be equal to the first Treatment Start Date (EXSTDTC) unless the animal is a replacement.","Consistency",""
"SE2378","92","QVAL value is not numeric when QNAM = --CALCN","The Numeric Interpretation for Calculations (--CALCN) supplemental qualifier variable should only contain numeric values in QVAL.","Format",""
"SE2379","323","Value for FOCID must be more than a number","The value for Focus of Study-Specific Interest (FOCID) must contain more than a number.","Format",""
"SE2380","FDAB053, 102","Invalid --VAL value for AGETXT","TSVAL/TXVAL value should be populated with 'number-number' format, when TSPARMCD/TXPARMCD='AGETXT'.","Format",""
"SE2381","332","Missing TLST record to qualify the test for &quotLast Nonzero Conc&quot for matching time concentration profile","For each record with Parameter Name (PPTEST) containing “to Last Nonzero Conc”,  there must be a record with Parameter Test Code (PPTESTCD) = ”TLST” that contains the same USUBJID, POOLID, PPCAT, PPSPEC and PPNOMDY.","Presence",""
"SE2383","399","Invalid TSVAL value for SNDIGVER","TSVAL for SNDIGVER record must be a valid term from (SNDIGVER) CT codelist. For SENDIG 3.1.1, this is ""SEND IMPLEMENTATION GUIDE VERSION 3.1.1"".","Terminology",""
"SE2387","","Custom domain included for a nonclinical study","A custom domain has been included for a nonclinical study; use should be clearly documented in the nSDRG.","Presence",""
"SE2388","FDAB065","No findings domains included for a nonclinical study","No findings domains have been included for a nonclinical study; the reason should be clearly documented in the nSDRG.","Presence",""
"SE2389","FDAB026","Multiple BASELINE records for the same test","By its definition clinical baseline flags (e.g., last non-missing value prior to first dose) should have only a single record for the same test for subject. Therefore, each subject (USUBJID) should have no more than one record with Baseline Flag (--BLFL) equals 'Y' for the same assessment which is defined by Test (--TESTCD), Category (--CAT), Subcategory (--SCAT), Method (--METHOD), Specimen (--SPEC), Location (--LOC), Laterality (--LAT) and Directionality (--DIR).","Consistency",""